"subj_idx","response","rt","stim","block","block_number","trial_z","rt_inv_trim_grp","run_trial","run_trial_z","prev_rt","prev_rt_inv"
1,1,537,"congruent","most_con",1,-1.72121064913839,-1.86219739292365,1,-1.66802789939819,NA,NA
1,1,599,"incongruent","most_con",1,-1.69956020072156,-1.669449081803,2,-1.58248800712136,0.537,-1.86219739292365
1,1,397,"congruent","most_con",1,-1.67790975230472,-2.51889168765743,3,-1.49694811484453,0.599,-1.669449081803
1,1,450,"congruent","most_con",1,-1.65625930388789,-2.22222222222222,4,-1.4114082225677,0.397,-2.51889168765743
1,1,376,"incongruent","most_con",1,-1.63460885547105,-2.65957446808511,5,-1.32586833029087,0.45,-2.22222222222222
1,1,413,"congruent","most_con",1,-1.61295840705422,-2.42130750605327,6,-1.24032843801404,0.376,-2.65957446808511
1,1,403,"congruent","most_con",1,-1.59130795863738,-2.48138957816377,7,-1.15478854573721,0.413,-2.42130750605327
1,1,377,"congruent","most_con",1,-1.56965751022055,-2.6525198938992,8,-1.06924865346038,0.403,-2.48138957816377
1,1,439,"incongruent","most_con",1,-1.54800706180371,-2.27790432801822,9,-0.983708761183547,0.377,-2.6525198938992
1,1,445,"incongruent","most_con",1,-1.52635661338688,-2.24719101123596,10,-0.898168868906717,0.439,-2.27790432801822
1,1,393,"incongruent","most_con",1,-1.50470616497004,-2.54452926208651,11,-0.812628976629887,0.445,-2.24719101123596
1,1,439,"incongruent","most_con",1,-1.48305571655321,-2.27790432801822,12,-0.727089084353056,0.393,-2.54452926208651
1,1,469,"incongruent","most_con",1,-1.46140526813637,-2.13219616204691,13,-0.641549192076226,0.439,-2.27790432801822
1,1,395,"congruent","most_con",1,-1.43975481971953,-2.53164556962025,14,-0.556009299799396,0.469,-2.13219616204691
1,1,441,"congruent","most_con",1,-1.4181043713027,-2.26757369614512,15,-0.470469407522566,0.395,-2.53164556962025
1,1,359,"congruent","most_con",1,-1.39645392288586,-2.78551532033426,16,-0.384929515245736,0.441,-2.26757369614512
1,1,500,"incongruent","most_con",1,-1.37480347446903,-2,17,-0.299389622968906,0.359,-2.78551532033426
1,1,545,"congruent","most_con",1,-1.35315302605219,-1.8348623853211,18,-0.213849730692075,0.5,-2
1,1,623,"congruent","most_con",1,-1.33150257763536,-1.60513643659711,19,-0.128309838415245,0.545,-1.8348623853211
1,1,461,"congruent","most_con",1,-1.30985212921852,-2.16919739696312,20,-0.0427699461384151,0.623,-1.60513643659711
1,1,403,"incongruent","most_con",1,-1.28820168080169,-2.48138957816377,21,0.0427699461384151,0.461,-2.16919739696312
1,1,416,"incongruent","most_con",1,-1.26655123238485,-2.40384615384615,22,0.128309838415245,0.403,-2.48138957816377
1,1,438,"congruent","most_con",1,-1.24490078396802,-2.28310502283105,23,0.213849730692075,0.416,-2.40384615384615
1,1,420,"incongruent","most_con",1,-1.22325033555118,-2.38095238095238,24,0.299389622968906,0.438,-2.28310502283105
1,1,481,"congruent","most_con",1,-1.20159988713435,-2.07900207900208,25,0.384929515245736,0.42,-2.38095238095238
1,1,439,"congruent","most_con",1,-1.17994943871751,-2.27790432801822,26,0.470469407522566,0.481,-2.07900207900208
1,1,341,"congruent","most_con",1,-1.15829899030068,-2.93255131964809,27,0.556009299799396,0.439,-2.27790432801822
1,1,314,"congruent","most_con",1,-1.13664854188384,-3.18471337579618,28,0.641549192076226,0.341,-2.93255131964809
1,1,392,"congruent","most_con",1,-1.11499809346701,-2.55102040816327,29,0.727089084353056,0.314,-3.18471337579618
1,1,342,"congruent","most_con",1,-1.09334764505017,-2.92397660818713,30,0.812628976629887,0.392,-2.55102040816327
1,1,412,"congruent","most_con",1,-1.07169719663334,-2.42718446601942,31,0.898168868906717,0.342,-2.92397660818713
1,1,369,"congruent","most_con",1,-1.0500467482165,-2.710027100271,32,0.983708761183547,0.412,-2.42718446601942
1,1,358,"congruent","most_con",1,-1.02839629979967,-2.79329608938547,33,1.06924865346038,0.369,-2.710027100271
1,1,388,"incongruent","most_con",1,-1.00674585138283,-2.57731958762887,34,1.15478854573721,0.358,-2.79329608938547
1,1,386,"congruent","most_con",1,-0.985095402965998,-2.59067357512953,35,1.24032843801404,0.388,-2.57731958762887
1,1,472,"congruent","most_con",1,-0.963444954549162,-2.11864406779661,36,1.32586833029087,0.386,-2.59067357512953
1,1,486,"congruent","most_con",1,-0.941794506132327,-2.05761316872428,37,1.4114082225677,0.472,-2.11864406779661
1,1,419,"congruent","most_con",1,-0.920144057715492,-2.38663484486873,38,1.49694811484453,0.486,-2.05761316872428
1,1,489,"congruent","most_con",1,-0.898493609298657,-2.04498977505112,39,1.58248800712136,0.419,-2.38663484486873
1,1,398,"congruent","most_con",1,-0.876843160881822,-2.51256281407035,40,1.66802789939819,0.489,-2.04498977505112
1,1,404,"incongruent","most_incon",2,-0.855192712464987,-2.47524752475248,1,-1.66802789939819,NA,NA
1,1,386,"incongruent","most_incon",2,-0.833542264048152,-2.59067357512953,2,-1.58248800712136,0.404,-2.47524752475248
1,1,352,"congruent","most_incon",2,-0.811891815631317,-2.84090909090909,3,-1.49694811484453,0.386,-2.59067357512953
1,1,397,"incongruent","most_incon",2,-0.790241367214482,-2.51889168765743,4,-1.4114082225677,0.352,-2.84090909090909
1,1,323,"incongruent","most_incon",2,-0.768590918797647,-3.09597523219814,5,-1.32586833029087,0.397,-2.51889168765743
1,1,433,"incongruent","most_incon",2,-0.746940470380811,-2.3094688221709,6,-1.24032843801404,0.323,-3.09597523219814
1,1,582,"incongruent","most_incon",2,-0.725290021963976,-1.71821305841924,7,-1.15478854573721,0.433,-2.3094688221709
1,1,436,"incongruent","most_incon",2,-0.703639573547141,-2.29357798165138,8,-1.06924865346038,0.582,-1.71821305841924
1,1,601,"congruent","most_incon",2,-0.681989125130306,-1.66389351081531,9,-0.983708761183547,0.436,-2.29357798165138
1,1,607,"incongruent","most_incon",2,-0.660338676713471,-1.64744645799012,10,-0.898168868906717,0.601,-1.66389351081531
1,1,485,"incongruent","most_incon",2,-0.638688228296636,-2.06185567010309,11,-0.812628976629887,0.607,-1.64744645799012
1,1,379,"incongruent","most_incon",2,-0.617037779879801,-2.63852242744063,12,-0.727089084353056,0.485,-2.06185567010309
1,1,345,"congruent","most_incon",2,-0.595387331462966,-2.89855072463768,13,-0.641549192076226,0.379,-2.63852242744063
1,1,461,"congruent","most_incon",2,-0.57373688304613,-2.16919739696312,14,-0.556009299799396,0.345,-2.89855072463768
1,1,411,"incongruent","most_incon",2,-0.552086434629295,-2.4330900243309,15,-0.470469407522566,0.461,-2.16919739696312
1,1,417,"congruent","most_incon",2,-0.53043598621246,-2.39808153477218,16,-0.384929515245736,0.411,-2.4330900243309
1,1,391,"congruent","most_incon",2,-0.508785537795625,-2.55754475703325,17,-0.299389622968906,0.417,-2.39808153477218
1,1,469,"congruent","most_incon",2,-0.48713508937879,-2.13219616204691,18,-0.213849730692075,0.391,-2.55754475703325
1,1,451,"incongruent","most_incon",2,-0.465484640961955,-2.21729490022173,19,-0.128309838415245,0.469,-2.13219616204691
1,1,496,"incongruent","most_incon",2,-0.44383419254512,-2.01612903225806,20,-0.0427699461384151,0.451,-2.21729490022173
1,0,517,"congruent","most_incon",2,-0.422183744128285,-1.93423597678917,21,0.0427699461384151,0.496,-2.01612903225806
1,1,459,"incongruent","most_incon",2,-0.40053329571145,-2.17864923747277,22,0.128309838415245,0.517,-1.93423597678917
1,1,449,"incongruent","most_incon",2,-0.378882847294614,-2.2271714922049,23,0.213849730692075,0.459,-2.17864923747277
1,1,431,"incongruent","most_incon",2,-0.357232398877779,-2.32018561484919,24,0.299389622968906,0.449,-2.2271714922049
1,1,444,"incongruent","most_incon",2,-0.335581950460944,-2.25225225225225,25,0.384929515245736,0.431,-2.32018561484919
1,1,442,"incongruent","most_incon",2,-0.313931502044109,-2.26244343891403,26,0.470469407522566,0.444,-2.25225225225225
1,1,384,"incongruent","most_incon",2,-0.292281053627274,-2.60416666666667,27,0.556009299799396,0.442,-2.26244343891403
1,1,413,"incongruent","most_incon",2,-0.270630605210439,-2.42130750605327,28,0.641549192076226,0.384,-2.60416666666667
1,1,659,"incongruent","most_incon",2,-0.248980156793604,-1.51745068285281,29,0.727089084353056,0.413,-2.42130750605327
1,1,457,"incongruent","most_incon",2,-0.227329708376769,-2.18818380743982,30,0.812628976629887,0.659,-1.51745068285281
1,1,334,"incongruent","most_incon",2,-0.205679259959934,-2.9940119760479,31,0.898168868906717,0.457,-2.18818380743982
1,1,348,"congruent","most_incon",2,-0.184028811543098,-2.8735632183908,32,0.983708761183547,0.334,-2.9940119760479
1,1,394,"congruent","most_incon",2,-0.162378363126263,-2.53807106598985,33,1.06924865346038,0.348,-2.8735632183908
1,1,400,"incongruent","most_incon",2,-0.140727914709428,-2.5,34,1.15478854573721,0.394,-2.53807106598985
1,1,413,"incongruent","most_incon",2,-0.119077466292593,-2.42130750605327,35,1.24032843801404,0.4,-2.5
1,1,450,"congruent","most_incon",2,-0.097427017875758,-2.22222222222222,36,1.32586833029087,0.413,-2.42130750605327
1,1,456,"incongruent","most_incon",2,-0.0757765694589229,-2.19298245614035,37,1.4114082225677,0.45,-2.22222222222222
1,1,398,"congruent","most_incon",2,-0.0541261210420878,-2.51256281407035,38,1.49694811484453,0.456,-2.19298245614035
1,1,396,"incongruent","most_incon",2,-0.0324756726252527,-2.52525252525253,39,1.58248800712136,0.398,-2.51256281407035
1,1,386,"incongruent","most_incon",2,-0.0108252242084176,-2.59067357512953,40,1.66802789939819,0.396,-2.52525252525253
1,1,685,"incongruent","most_incon",3,0.0108252242084176,-1.45985401459854,1,-1.66802789939819,NA,NA
1,1,419,"congruent","most_incon",3,0.0324756726252527,-2.38663484486873,2,-1.58248800712136,0.685,-1.45985401459854
1,1,384,"incongruent","most_incon",3,0.0541261210420878,-2.60416666666667,3,-1.49694811484453,0.419,-2.38663484486873
1,1,374,"incongruent","most_incon",3,0.0757765694589229,-2.67379679144385,4,-1.4114082225677,0.384,-2.60416666666667
1,1,372,"incongruent","most_incon",3,0.097427017875758,-2.68817204301075,5,-1.32586833029087,0.374,-2.67379679144385
1,1,418,"incongruent","most_incon",3,0.119077466292593,-2.39234449760766,6,-1.24032843801404,0.372,-2.68817204301075
1,1,384,"incongruent","most_incon",3,0.140727914709428,-2.60416666666667,7,-1.15478854573721,0.418,-2.39234449760766
1,1,356,"congruent","most_incon",3,0.162378363126263,-2.80898876404494,8,-1.06924865346038,0.384,-2.60416666666667
1,1,410,"incongruent","most_incon",3,0.184028811543098,-2.4390243902439,9,-0.983708761183547,0.356,-2.80898876404494
1,1,384,"incongruent","most_incon",3,0.205679259959934,-2.60416666666667,10,-0.898168868906717,0.41,-2.4390243902439
1,0,366,"incongruent","most_incon",3,0.227329708376769,-2.73224043715847,11,-0.812628976629887,0.384,-2.60416666666667
1,1,404,"incongruent","most_incon",3,0.248980156793604,-2.47524752475248,12,-0.727089084353056,0.366,-2.73224043715847
1,1,402,"congruent","most_incon",3,0.270630605210439,-2.48756218905473,13,-0.641549192076226,0.404,-2.47524752475248
1,1,423,"incongruent","most_incon",3,0.292281053627274,-2.36406619385343,14,-0.556009299799396,0.402,-2.48756218905473
1,1,428,"congruent","most_incon",3,0.313931502044109,-2.33644859813084,15,-0.470469407522566,0.423,-2.36406619385343
1,1,418,"incongruent","most_incon",3,0.335581950460944,-2.39234449760766,16,-0.384929515245736,0.428,-2.33644859813084
1,1,328,"congruent","most_incon",3,0.357232398877779,-3.04878048780488,17,-0.299389622968906,0.418,-2.39234449760766
1,1,414,"incongruent","most_incon",3,0.378882847294614,-2.41545893719807,18,-0.213849730692075,0.328,-3.04878048780488
1,1,347,"congruent","most_incon",3,0.40053329571145,-2.88184438040346,19,-0.128309838415245,0.414,-2.41545893719807
1,1,441,"congruent","most_incon",3,0.422183744128285,-2.26757369614512,20,-0.0427699461384151,0.347,-2.88184438040346
1,1,407,"incongruent","most_incon",3,0.44383419254512,-2.45700245700246,21,0.0427699461384151,0.441,-2.26757369614512
1,1,380,"incongruent","most_incon",3,0.465484640961955,-2.63157894736842,22,0.128309838415245,0.407,-2.45700245700246
1,1,410,"congruent","most_incon",3,0.48713508937879,-2.4390243902439,23,0.213849730692075,0.38,-2.63157894736842
1,1,400,"incongruent","most_incon",3,0.508785537795625,-2.5,24,0.299389622968906,0.41,-2.4390243902439
1,1,437,"incongruent","most_incon",3,0.53043598621246,-2.2883295194508,25,0.384929515245736,0.4,-2.5
1,1,515,"congruent","most_incon",3,0.552086434629295,-1.94174757281553,26,0.470469407522566,0.437,-2.2883295194508
1,1,377,"incongruent","most_incon",3,0.57373688304613,-2.6525198938992,27,0.556009299799396,0.515,-1.94174757281553
1,1,343,"incongruent","most_incon",3,0.595387331462966,-2.91545189504373,28,0.641549192076226,0.377,-2.6525198938992
1,1,468,"incongruent","most_incon",3,0.617037779879801,-2.13675213675214,29,0.727089084353056,0.343,-2.91545189504373
1,1,377,"congruent","most_incon",3,0.638688228296636,-2.6525198938992,30,0.812628976629887,0.468,-2.13675213675214
1,1,359,"congruent","most_incon",3,0.660338676713471,-2.78551532033426,31,0.898168868906717,0.377,-2.6525198938992
1,1,485,"incongruent","most_incon",3,0.681989125130306,-2.06185567010309,32,0.983708761183547,0.359,-2.78551532033426
1,1,499,"incongruent","most_incon",3,0.703639573547141,-2.00400801603206,33,1.06924865346038,0.485,-2.06185567010309
1,1,505,"incongruent","most_incon",3,0.725290021963976,-1.98019801980198,34,1.15478854573721,0.499,-2.00400801603206
1,1,422,"incongruent","most_incon",3,0.746940470380811,-2.3696682464455,35,1.24032843801404,0.505,-1.98019801980198
1,1,427,"congruent","most_incon",3,0.768590918797647,-2.34192037470726,36,1.32586833029087,0.422,-2.3696682464455
1,1,385,"incongruent","most_incon",3,0.790241367214482,-2.5974025974026,37,1.4114082225677,0.427,-2.34192037470726
1,1,407,"incongruent","most_incon",3,0.811891815631317,-2.45700245700246,38,1.49694811484453,0.385,-2.5974025974026
1,1,541,"incongruent","most_incon",3,0.833542264048152,-1.84842883548983,39,1.58248800712136,0.407,-2.45700245700246
1,1,547,"incongruent","most_incon",3,0.855192712464987,-1.82815356489945,40,1.66802789939819,0.541,-1.84842883548983
1,1,376,"congruent","most_con",4,0.876843160881822,-2.65957446808511,1,-1.66802789939819,NA,NA
1,1,446,"congruent","most_con",4,0.898493609298657,-2.24215246636771,2,-1.58248800712136,0.376,-2.65957446808511
1,1,467,"incongruent","most_con",4,0.920144057715492,-2.14132762312634,3,-1.49694811484453,0.446,-2.24215246636771
1,1,385,"congruent","most_con",4,0.941794506132327,-2.5974025974026,4,-1.4114082225677,0.467,-2.14132762312634
1,1,399,"congruent","most_con",4,0.963444954549162,-2.5062656641604,5,-1.32586833029087,0.385,-2.5974025974026
1,1,444,"congruent","most_con",4,0.985095402965998,-2.25225225225225,6,-1.24032843801404,0.399,-2.5062656641604
1,1,410,"congruent","most_con",4,1.00674585138283,-2.4390243902439,7,-1.15478854573721,0.444,-2.25225225225225
1,1,440,"congruent","most_con",4,1.02839629979967,-2.27272727272727,8,-1.06924865346038,0.41,-2.4390243902439
1,1,534,"congruent","most_con",4,1.0500467482165,-1.87265917602996,9,-0.983708761183547,0.44,-2.27272727272727
1,1,395,"incongruent","most_con",4,1.07169719663334,-2.53164556962025,10,-0.898168868906717,0.534,-1.87265917602996
1,1,473,"congruent","most_con",4,1.09334764505017,-2.11416490486258,11,-0.812628976629887,0.395,-2.53164556962025
1,1,422,"congruent","most_con",4,1.11499809346701,-2.3696682464455,12,-0.727089084353056,0.473,-2.11416490486258
1,1,436,"incongruent","most_con",4,1.13664854188384,-2.29357798165138,13,-0.641549192076226,0.422,-2.3696682464455
1,1,370,"congruent","most_con",4,1.15829899030068,-2.7027027027027,14,-0.556009299799396,0.436,-2.29357798165138
1,1,520,"congruent","most_con",4,1.17994943871751,-1.92307692307692,15,-0.470469407522566,0.37,-2.7027027027027
1,1,438,"incongruent","most_con",4,1.20159988713435,-2.28310502283105,16,-0.384929515245736,0.52,-1.92307692307692
1,1,418,"incongruent","most_con",4,1.22325033555118,-2.39234449760766,17,-0.299389622968906,0.438,-2.28310502283105
1,1,416,"congruent","most_con",4,1.24490078396802,-2.40384615384615,18,-0.213849730692075,0.418,-2.39234449760766
1,1,486,"incongruent","most_con",4,1.26655123238485,-2.05761316872428,19,-0.128309838415245,0.416,-2.40384615384615
1,1,372,"congruent","most_con",4,1.28820168080169,-2.68817204301075,20,-0.0427699461384151,0.486,-2.05761316872428
1,1,378,"congruent","most_con",4,1.30985212921852,-2.64550264550265,21,0.0427699461384151,0.372,-2.68817204301075
1,1,383,"congruent","most_con",4,1.33150257763536,-2.61096605744125,22,0.128309838415245,0.378,-2.64550264550265
1,1,325,"congruent","most_con",4,1.35315302605219,-3.07692307692308,23,0.213849730692075,0.383,-2.61096605744125
1,1,378,"congruent","most_con",4,1.37480347446903,-2.64550264550265,24,0.299389622968906,0.325,-3.07692307692308
1,1,384,"incongruent","most_con",4,1.39645392288586,-2.60416666666667,25,0.384929515245736,0.378,-2.64550264550265
1,1,430,"congruent","most_con",4,1.4181043713027,-2.32558139534884,26,0.470469407522566,0.384,-2.60416666666667
1,1,436,"congruent","most_con",4,1.43975481971953,-2.29357798165138,27,0.556009299799396,0.43,-2.32558139534884
1,1,369,"incongruent","most_con",4,1.46140526813637,-2.710027100271,28,0.641549192076226,0.436,-2.29357798165138
1,1,359,"incongruent","most_con",4,1.48305571655321,-2.78551532033426,29,0.727089084353056,0.369,-2.710027100271
1,1,421,"congruent","most_con",4,1.50470616497004,-2.37529691211401,30,0.812628976629887,0.359,-2.78551532033426
1,1,642,"congruent","most_con",4,1.52635661338688,-1.55763239875389,31,0.898168868906717,0.421,-2.37529691211401
1,1,464,"congruent","most_con",4,1.54800706180371,-2.1551724137931,32,0.983708761183547,0.642,-1.55763239875389
1,1,397,"congruent","most_con",4,1.56965751022055,-2.51889168765743,33,1.06924865346038,0.464,-2.1551724137931
1,1,427,"congruent","most_con",4,1.59130795863738,-2.34192037470726,34,1.15478854573721,0.397,-2.51889168765743
1,1,425,"congruent","most_con",4,1.61295840705422,-2.35294117647059,35,1.24032843801404,0.427,-2.34192037470726
1,1,463,"congruent","most_con",4,1.63460885547105,-2.15982721382289,36,1.32586833029087,0.425,-2.35294117647059
1,1,373,"congruent","most_con",4,1.65625930388789,-2.68096514745308,37,1.4114082225677,0.463,-2.15982721382289
1,1,386,"incongruent","most_con",4,1.67790975230472,-2.59067357512953,38,1.49694811484453,0.373,-2.68096514745308
1,1,407,"incongruent","most_con",4,1.69956020072156,-2.45700245700246,39,1.58248800712136,0.386,-2.59067357512953
1,1,461,"incongruent","most_con",4,1.72121064913839,-2.16919739696312,40,1.66802789939819,0.407,-2.45700245700246
2,1,462,"incongruent","most_con",1,-1.72121064913839,-2.16450216450216,1,-1.66802789939819,NA,NA
2,1,419,"incongruent","most_con",1,-1.69956020072156,-2.38663484486873,2,-1.58248800712136,0.462,-2.16450216450216
2,1,481,"incongruent","most_con",1,-1.67790975230472,-2.07900207900208,3,-1.49694811484453,0.419,-2.38663484486873
2,1,447,"congruent","most_con",1,-1.65625930388789,-2.23713646532438,4,-1.4114082225677,0.481,-2.07900207900208
2,1,404,"congruent","most_con",1,-1.63460885547105,-2.47524752475248,5,-1.32586833029087,0.447,-2.23713646532438
2,1,394,"congruent","most_con",1,-1.61295840705422,-2.53807106598985,6,-1.24032843801404,0.404,-2.47524752475248
2,1,368,"congruent","most_con",1,-1.59130795863738,-2.71739130434783,7,-1.15478854573721,0.394,-2.53807106598985
2,1,302,"incongruent","most_con",1,-1.56965751022055,-3.3112582781457,8,-1.06924865346038,0.368,-2.71739130434783
2,1,267,"congruent","most_con",1,-1.54800706180371,-3.74531835205992,9,-0.983708761183547,0.302,-3.3112582781457
2,NA,NA,"congruent","most_con",1,-1.52635661338688,NA,10,-0.898168868906717,0.267,-3.74531835205992
2,1,341,"congruent","most_con",1,-1.50470616497004,-2.93255131964809,11,-0.812628976629887,0.232,-4.31034482758621
2,1,476,"incongruent","most_con",1,-1.48305571655321,-2.10084033613445,12,-0.727089084353056,0.341,-2.93255131964809
2,1,338,"congruent","most_con",1,-1.46140526813637,-2.9585798816568,13,-0.641549192076226,0.476,-2.10084033613445
2,1,376,"congruent","most_con",1,-1.43975481971953,-2.65957446808511,14,-0.556009299799396,0.338,-2.9585798816568
2,1,334,"congruent","most_con",1,-1.4181043713027,-2.9940119760479,15,-0.470469407522566,0.376,-2.65957446808511
2,1,410,"incongruent","most_con",1,-1.39645392288586,-2.4390243902439,16,-0.384929515245736,0.334,-2.9940119760479
2,1,376,"congruent","most_con",1,-1.37480347446903,-2.65957446808511,17,-0.299389622968906,0.41,-2.4390243902439
2,1,342,"congruent","most_con",1,-1.35315302605219,-2.92397660818713,18,-0.213849730692075,0.376,-2.65957446808511
2,1,412,"incongruent","most_con",1,-1.33150257763536,-2.42718446601942,19,-0.128309838415245,0.342,-2.92397660818713
2,1,306,"congruent","most_con",1,-1.30985212921852,-3.26797385620915,20,-0.0427699461384151,0.412,-2.42718446601942
2,1,423,"congruent","most_con",1,-1.28820168080169,-2.36406619385343,21,0.0427699461384151,0.306,-3.26797385620915
2,1,301,"congruent","most_con",1,-1.26655123238485,-3.32225913621262,22,0.128309838415245,0.423,-2.36406619385343
2,1,282,"congruent","most_con",1,-1.24490078396802,-3.54609929078014,23,0.213849730692075,0.301,-3.32225913621262
2,1,264,"congruent","most_con",1,-1.22325033555118,-3.78787878787879,24,0.299389622968906,0.282,-3.54609929078014
2,1,374,"congruent","most_con",1,-1.20159988713435,-2.67379679144385,25,0.384929515245736,0.264,-3.78787878787879
2,1,331,"incongruent","most_con",1,-1.17994943871751,-3.02114803625378,26,0.470469407522566,0.374,-2.67379679144385
2,1,257,"congruent","most_con",1,-1.15829899030068,-3.89105058365759,27,0.556009299799396,0.331,-3.02114803625378
2,1,311,"congruent","most_con",1,-1.13664854188384,-3.21543408360129,28,0.641549192076226,0.257,-3.89105058365759
2,0,293,"congruent","most_con",1,-1.11499809346701,-3.41296928327645,29,0.727089084353056,0.311,-3.21543408360129
2,1,474,"incongruent","most_con",1,-1.09334764505017,-2.10970464135021,30,0.812628976629887,0.293,-3.41296928327645
2,1,416,"congruent","most_con",1,-1.07169719663334,-2.40384615384615,31,0.898168868906717,0.474,-2.10970464135021
2,1,285,"congruent","most_con",1,-1.0500467482165,-3.50877192982456,32,0.983708761183547,0.416,-2.40384615384615
2,1,515,"incongruent","most_con",1,-1.02839629979967,-1.94174757281553,33,1.06924865346038,0.285,-3.50877192982456
2,1,393,"congruent","most_con",1,-1.00674585138283,-2.54452926208651,34,1.15478854573721,0.515,-1.94174757281553
2,1,303,"congruent","most_con",1,-0.985095402965998,-3.3003300330033,35,1.24032843801404,0.393,-2.54452926208651
2,1,253,"congruent","most_con",1,-0.963444954549162,-3.95256916996047,36,1.32586833029087,0.303,-3.3003300330033
2,1,281,"congruent","most_con",1,-0.941794506132327,-3.55871886120996,37,1.4114082225677,0.253,-3.95256916996047
2,NA,NA,"congruent","most_con",1,-0.920144057715492,NA,38,1.49694811484453,0.281,-3.55871886120996
2,0,269,"incongruent","most_con",1,-0.898493609298657,-3.71747211895911,39,1.58248800712136,0.215,-4.65116279069767
2,1,435,"incongruent","most_con",1,-0.876843160881822,-2.29885057471264,40,1.66802789939819,0.269,-3.71747211895911
2,1,321,"incongruent","most_incon",2,-0.855192712464987,-3.11526479750779,1,-1.66802789939819,NA,NA
2,1,335,"incongruent","most_incon",2,-0.833542264048152,-2.98507462686567,2,-1.58248800712136,0.321,-3.11526479750779
2,1,428,"incongruent","most_incon",2,-0.811891815631317,-2.33644859813084,3,-1.49694811484453,0.335,-2.98507462686567
2,1,385,"incongruent","most_incon",2,-0.790241367214482,-2.5974025974026,4,-1.4114082225677,0.428,-2.33644859813084
2,1,431,"incongruent","most_incon",2,-0.768590918797647,-2.32018561484919,5,-1.32586833029087,0.385,-2.5974025974026
2,1,381,"incongruent","most_incon",2,-0.746940470380811,-2.6246719160105,6,-1.24032843801404,0.431,-2.32018561484919
2,1,267,"congruent","most_incon",2,-0.725290021963976,-3.74531835205992,7,-1.15478854573721,0.381,-2.6246719160105
2,0,264,"incongruent","most_incon",2,-0.703639573547141,-3.78787878787879,8,-1.06924865346038,0.267,-3.74531835205992
2,1,326,"incongruent","most_incon",2,-0.681989125130306,-3.06748466257669,9,-0.983708761183547,0.264,-3.78787878787879
2,1,340,"incongruent","most_incon",2,-0.660338676713471,-2.94117647058824,10,-0.898168868906717,0.326,-3.06748466257669
2,1,409,"congruent","most_incon",2,-0.638688228296636,-2.44498777506112,11,-0.812628976629887,0.34,-2.94117647058824
2,1,319,"congruent","most_incon",2,-0.617037779879801,-3.13479623824451,12,-0.727089084353056,0.409,-2.44498777506112
2,1,429,"incongruent","most_incon",2,-0.595387331462966,-2.33100233100233,13,-0.641549192076226,0.319,-3.13479623824451
2,1,378,"congruent","most_incon",2,-0.57373688304613,-2.64550264550265,14,-0.556009299799396,0.429,-2.33100233100233
2,1,328,"incongruent","most_incon",2,-0.552086434629295,-3.04878048780488,15,-0.470469407522566,0.378,-2.64550264550265
2,1,326,"incongruent","most_incon",2,-0.53043598621246,-3.06748466257669,16,-0.384929515245736,0.328,-3.04878048780488
2,NA,NA,"incongruent","most_incon",2,-0.508785537795625,NA,17,-0.299389622968906,0.326,-3.06748466257669
2,1,513,"incongruent","most_incon",2,-0.48713508937879,-1.94931773879142,18,-0.213849730692075,0.228,-4.3859649122807
2,1,294,"congruent","most_incon",2,-0.465484640961955,-3.40136054421769,19,-0.128309838415245,0.513,-1.94931773879142
2,1,404,"incongruent","most_incon",2,-0.44383419254512,-2.47524752475248,20,-0.0427699461384151,0.294,-3.40136054421769
2,1,386,"incongruent","most_incon",2,-0.422183744128285,-2.59067357512953,21,0.0427699461384151,0.404,-2.47524752475248
2,1,336,"congruent","most_incon",2,-0.40053329571145,-2.97619047619048,22,0.128309838415245,0.386,-2.59067357512953
2,1,438,"incongruent","most_incon",2,-0.378882847294614,-2.28310502283105,23,0.213849730692075,0.336,-2.97619047619048
2,1,371,"incongruent","most_incon",2,-0.357232398877779,-2.69541778975741,24,0.299389622968906,0.438,-2.28310502283105
2,1,368,"incongruent","most_incon",2,-0.335581950460944,-2.71739130434783,25,0.384929515245736,0.371,-2.69541778975741
2,0,318,"incongruent","most_incon",2,-0.313931502044109,-3.14465408805031,26,0.470469407522566,0.368,-2.71739130434783
2,1,532,"incongruent","most_incon",2,-0.292281053627274,-1.8796992481203,27,0.556009299799396,0.318,-3.14465408805031
2,1,490,"congruent","most_incon",2,-0.270630605210439,-2.04081632653061,28,0.641549192076226,0.532,-1.8796992481203
2,1,408,"incongruent","most_incon",2,-0.248980156793604,-2.45098039215686,29,0.727089084353056,0.49,-2.04081632653061
2,1,389,"incongruent","most_incon",2,-0.227329708376769,-2.5706940874036,30,0.812628976629887,0.408,-2.45098039215686
2,1,331,"incongruent","most_incon",2,-0.205679259959934,-3.02114803625378,31,0.898168868906717,0.389,-2.5706940874036
2,1,368,"congruent","most_incon",2,-0.184028811543098,-2.71739130434783,32,0.983708761183547,0.331,-3.02114803625378
2,1,318,"incongruent","most_incon",2,-0.162378363126263,-3.14465408805031,33,1.06924865346038,0.368,-2.71739130434783
2,1,364,"congruent","most_incon",2,-0.140727914709428,-2.74725274725275,34,1.15478854573721,0.318,-3.14465408805031
2,1,329,"congruent","most_incon",2,-0.119077466292593,-3.03951367781155,35,1.24032843801404,0.364,-2.74725274725275
2,1,415,"incongruent","most_incon",2,-0.097427017875758,-2.40963855421687,36,1.32586833029087,0.329,-3.03951367781155
2,1,397,"incongruent","most_incon",2,-0.0757765694589229,-2.51889168765743,37,1.4114082225677,0.415,-2.40963855421687
2,1,307,"incongruent","most_incon",2,-0.0541261210420878,-3.25732899022801,38,1.49694811484453,0.397,-2.51889168765743
2,NA,NA,"congruent","most_incon",2,-0.0324756726252527,-4.03225806451613,39,1.58248800712136,0.307,-3.25732899022801
2,NA,NA,"congruent","most_incon",2,-0.0108252242084176,NA,40,1.66802789939819,0.248,-4.03225806451613
2,1,463,"incongruent","most_incon",3,0.0108252242084176,-2.15982721382289,1,-1.66802789939819,NA,NA
2,1,388,"incongruent","most_incon",3,0.0324756726252527,-2.57731958762887,2,-1.58248800712136,0.463,-2.15982721382289
2,1,298,"congruent","most_incon",3,0.0541261210420878,-3.35570469798658,3,-1.49694811484453,0.388,-2.57731958762887
2,1,464,"incongruent","most_incon",3,0.0757765694589229,-2.1551724137931,4,-1.4114082225677,0.298,-3.35570469798658
2,1,382,"incongruent","most_incon",3,0.097427017875758,-2.61780104712042,5,-1.32586833029087,0.464,-2.1551724137931
2,1,443,"incongruent","most_incon",3,0.119077466292593,-2.25733634311512,6,-1.24032843801404,0.382,-2.61780104712042
2,1,385,"incongruent","most_incon",3,0.140727914709428,-2.5974025974026,7,-1.15478854573721,0.443,-2.25733634311512
2,1,478,"incongruent","most_incon",3,0.162378363126263,-2.09205020920502,8,-1.06924865346038,0.385,-2.5974025974026
2,1,412,"congruent","most_incon",3,0.184028811543098,-2.42718446601942,9,-0.983708761183547,0.478,-2.09205020920502
2,1,274,"congruent","most_incon",3,0.205679259959934,-3.64963503649635,10,-0.898168868906717,0.412,-2.42718446601942
2,1,480,"incongruent","most_incon",3,0.227329708376769,-2.08333333333333,11,-0.812628976629887,0.274,-3.64963503649635
2,1,374,"incongruent","most_incon",3,0.248980156793604,-2.67379679144385,12,-0.727089084353056,0.48,-2.08333333333333
2,1,274,"incongruent","most_incon",3,0.270630605210439,-3.64963503649635,13,-0.641549192076226,0.374,-2.67379679144385
2,0,272,"incongruent","most_incon",3,0.292281053627274,-3.67647058823529,14,-0.556009299799396,0.274,-3.64963503649635
2,1,390,"incongruent","most_incon",3,0.313931502044109,-2.56410256410256,15,-0.470469407522566,0.272,-3.67647058823529
2,1,452,"incongruent","most_incon",3,0.335581950460944,-2.21238938053097,16,-0.384929515245736,0.39,-2.56410256410256
2,1,330,"congruent","most_incon",3,0.357232398877779,-3.03030303030303,17,-0.299389622968906,0.452,-2.21238938053097
2,1,376,"congruent","most_incon",3,0.378882847294614,-2.65957446808511,18,-0.213849730692075,0.33,-3.03030303030303
2,1,285,"incongruent","most_incon",3,0.40053329571145,-3.50877192982456,19,-0.128309838415245,0.376,-2.65957446808511
2,1,418,"incongruent","most_incon",3,0.422183744128285,-2.39234449760766,20,-0.0427699461384151,0.285,-3.50877192982456
2,1,320,"congruent","most_incon",3,0.44383419254512,-3.125,21,0.0427699461384151,0.418,-2.39234449760766
2,1,462,"incongruent","most_incon",3,0.465484640961955,-2.16450216450216,22,0.128309838415245,0.32,-3.125
2,1,348,"congruent","most_incon",3,0.48713508937879,-2.8735632183908,23,0.213849730692075,0.462,-2.16450216450216
2,1,369,"incongruent","most_incon",3,0.508785537795625,-2.710027100271,24,0.299389622968906,0.348,-2.8735632183908
2,1,431,"congruent","most_incon",3,0.53043598621246,-2.32018561484919,25,0.384929515245736,0.369,-2.710027100271
2,1,493,"incongruent","most_incon",3,0.552086434629295,-2.02839756592292,26,0.470469407522566,0.431,-2.32018561484919
2,1,482,"congruent","most_incon",3,0.57373688304613,-2.0746887966805,27,0.556009299799396,0.493,-2.02839756592292
2,1,360,"congruent","most_incon",3,0.595387331462966,-2.77777777777778,28,0.641549192076226,0.482,-2.0746887966805
2,1,382,"congruent","most_incon",3,0.617037779879801,-2.61780104712042,29,0.727089084353056,0.36,-2.77777777777778
2,1,331,"incongruent","most_incon",3,0.638688228296636,-3.02114803625378,30,0.812628976629887,0.382,-2.61780104712042
2,1,393,"incongruent","most_incon",3,0.660338676713471,-2.54452926208651,31,0.898168868906717,0.331,-3.02114803625378
2,1,351,"incongruent","most_incon",3,0.681989125130306,-2.84900284900285,32,0.983708761183547,0.393,-2.54452926208651
2,1,373,"congruent","most_incon",3,0.703639573547141,-2.68096514745308,33,1.06924865346038,0.351,-2.84900284900285
2,1,458,"incongruent","most_incon",3,0.725290021963976,-2.18340611353712,34,1.15478854573721,0.373,-2.68096514745308
2,1,399,"incongruent","most_incon",3,0.746940470380811,-2.5062656641604,35,1.24032843801404,0.458,-2.18340611353712
2,1,325,"incongruent","most_incon",3,0.768590918797647,-3.07692307692308,36,1.32586833029087,0.399,-2.5062656641604
2,1,283,"incongruent","most_incon",3,0.790241367214482,-3.53356890459364,37,1.4114082225677,0.325,-3.07692307692308
2,1,409,"incongruent","most_incon",3,0.811891815631317,-2.44498777506112,38,1.49694811484453,0.283,-3.53356890459364
2,1,343,"incongruent","most_incon",3,0.833542264048152,-2.91545189504373,39,1.58248800712136,0.409,-2.44498777506112
2,1,252,"incongruent","most_incon",3,0.855192712464987,-3.96825396825397,40,1.66802789939819,0.343,-2.91545189504373
2,1,353,"congruent","most_con",4,0.876843160881822,-2.8328611898017,1,-1.66802789939819,NA,NA
2,1,279,"congruent","most_con",4,0.898493609298657,-3.584229390681,2,-1.58248800712136,0.353,-2.8328611898017
2,1,293,"congruent","most_con",4,0.920144057715492,-3.41296928327645,3,-1.49694811484453,0.279,-3.584229390681
2,1,275,"incongruent","most_con",4,0.941794506132327,-3.63636363636364,4,-1.4114082225677,0.293,-3.41296928327645
2,1,401,"congruent","most_con",4,0.963444954549162,-2.49376558603491,5,-1.32586833029087,0.275,-3.63636363636364
2,1,318,"congruent","most_con",4,0.985095402965998,-3.14465408805031,6,-1.24032843801404,0.401,-2.49376558603491
2,1,380,"congruent","most_con",4,1.00674585138283,-2.63157894736842,7,-1.15478854573721,0.318,-3.14465408805031
2,1,465,"incongruent","most_con",4,1.02839629979967,-2.1505376344086,8,-1.06924865346038,0.38,-2.63157894736842
2,1,423,"congruent","most_con",4,1.0500467482165,-2.36406619385343,9,-0.983708761183547,0.465,-2.1505376344086
2,1,389,"congruent","most_con",4,1.07169719663334,-2.5706940874036,10,-0.898168868906717,0.423,-2.36406619385343
2,1,338,"incongruent","most_con",4,1.09334764505017,-2.9585798816568,11,-0.812628976629887,0.389,-2.5706940874036
2,1,264,"congruent","most_con",4,1.11499809346701,-3.78787878787879,12,-0.727089084353056,0.338,-2.9585798816568
2,1,270,"incongruent","most_con",4,1.13664854188384,-3.7037037037037,13,-0.641549192076226,0.264,-3.78787878787879
2,0,284,"incongruent","most_con",4,1.15829899030068,-3.52112676056338,14,-0.556009299799396,0.27,-3.7037037037037
2,1,337,"congruent","most_con",4,1.17994943871751,-2.9673590504451,15,-0.470469407522566,0.284,-3.52112676056338
2,1,263,"congruent","most_con",4,1.20159988713435,-3.80228136882129,16,-0.384929515245736,0.337,-2.9673590504451
2,1,484,"congruent","most_con",4,1.22325033555118,-2.06611570247934,17,-0.299389622968906,0.263,-3.80228136882129
2,1,314,"congruent","most_con",4,1.24490078396802,-3.18471337579618,18,-0.213849730692075,0.484,-2.06611570247934
2,1,312,"congruent","most_con",4,1.26655123238485,-3.20512820512821,19,-0.128309838415245,0.314,-3.18471337579618
2,1,414,"congruent","most_con",4,1.28820168080169,-2.41545893719807,20,-0.0427699461384151,0.312,-3.20512820512821
2,1,444,"congruent","most_con",4,1.30985212921852,-2.25225225225225,21,0.0427699461384151,0.414,-2.41545893719807
2,0,320,"incongruent","most_con",4,1.33150257763536,-3.125,22,0.128309838415245,0.444,-2.25225225225225
2,1,382,"congruent","most_con",4,1.35315302605219,-2.61780104712042,23,0.213849730692075,0.32,-3.125
2,1,300,"incongruent","most_con",4,1.37480347446903,-3.33333333333333,24,0.299389622968906,0.382,-2.61780104712042
2,1,338,"congruent","most_con",4,1.39645392288586,-2.9585798816568,25,0.384929515245736,0.3,-3.33333333333333
2,1,464,"incongruent","most_con",4,1.4181043713027,-2.1551724137931,26,0.470469407522566,0.338,-2.9585798816568
2,1,413,"incongruent","most_con",4,1.43975481971953,-2.42130750605327,27,0.556009299799396,0.464,-2.1551724137931
2,1,403,"congruent","most_con",4,1.46140526813637,-2.48138957816377,28,0.641549192076226,0.413,-2.42130750605327
2,1,289,"congruent","most_con",4,1.48305571655321,-3.46020761245675,29,0.727089084353056,0.403,-2.48138957816377
2,1,342,"congruent","most_con",4,1.50470616497004,-2.92397660818713,30,0.812628976629887,0.289,-3.46020761245675
2,1,420,"congruent","most_con",4,1.52635661338688,-2.38095238095238,31,0.898168868906717,0.342,-2.92397660818713
2,1,426,"incongruent","most_con",4,1.54800706180371,-2.34741784037559,32,0.983708761183547,0.42,-2.38095238095238
2,1,375,"incongruent","most_con",4,1.56965751022055,-2.66666666666667,33,1.06924865346038,0.426,-2.34741784037559
2,1,365,"incongruent","most_con",4,1.59130795863738,-2.73972602739726,34,1.15478854573721,0.375,-2.66666666666667
2,1,395,"congruent","most_con",4,1.61295840705422,-2.53164556962025,35,1.24032843801404,0.365,-2.73972602739726
2,1,393,"congruent","most_con",4,1.63460885547105,-2.54452926208651,36,1.32586833029087,0.395,-2.53164556962025
2,1,302,"congruent","most_con",4,1.65625930388789,-3.3112582781457,37,1.4114082225677,0.393,-2.54452926208651
2,1,491,"congruent","most_con",4,1.67790975230472,-2.03665987780041,38,1.49694811484453,0.302,-3.3112582781457
2,1,449,"congruent","most_con",4,1.69956020072156,-2.2271714922049,39,1.58248800712136,0.491,-2.03665987780041
2,1,415,"congruent","most_con",4,1.72121064913839,-2.40963855421687,40,1.66802789939819,0.449,-2.2271714922049
3,1,379,"congruent","most_con",1,-1.72121064913839,-2.63852242744063,1,-1.66802789939819,NA,NA
3,1,521,"incongruent","most_con",1,-1.69956020072156,-1.91938579654511,2,-1.58248800712136,0.379,-2.63852242744063
3,1,454,"congruent","most_con",1,-1.67790975230472,-2.20264317180617,3,-1.49694811484453,0.521,-1.91938579654511
3,1,435,"congruent","most_con",1,-1.65625930388789,-2.29885057471264,4,-1.4114082225677,0.454,-2.20264317180617
3,1,473,"congruent","most_con",1,-1.63460885547105,-2.11416490486258,5,-1.32586833029087,0.435,-2.29885057471264
3,1,431,"incongruent","most_con",1,-1.61295840705422,-2.32018561484919,6,-1.24032843801404,0.473,-2.11416490486258
3,1,405,"congruent","most_con",1,-1.59130795863738,-2.46913580246914,7,-1.15478854573721,0.431,-2.32018561484919
3,1,338,"congruent","most_con",1,-1.56965751022055,-2.9585798816568,8,-1.06924865346038,0.405,-2.46913580246914
3,1,344,"congruent","most_con",1,-1.54800706180371,-2.90697674418605,9,-0.983708761183547,0.338,-2.9585798816568
3,1,422,"congruent","most_con",1,-1.52635661338688,-2.3696682464455,10,-0.898168868906717,0.344,-2.90697674418605
3,1,419,"congruent","most_con",1,-1.50470616497004,-2.38663484486873,11,-0.812628976629887,0.422,-2.3696682464455
3,1,529,"congruent","most_con",1,-1.48305571655321,-1.89035916824197,12,-0.727089084353056,0.419,-2.38663484486873
3,1,478,"congruent","most_con",1,-1.46140526813637,-2.09205020920502,13,-0.641549192076226,0.529,-1.89035916824197
3,1,484,"incongruent","most_con",1,-1.43975481971953,-2.06611570247934,14,-0.556009299799396,0.478,-2.09205020920502
3,1,434,"congruent","most_con",1,-1.4181043713027,-2.30414746543779,15,-0.470469407522566,0.484,-2.06611570247934
3,1,408,"congruent","most_con",1,-1.39645392288586,-2.45098039215686,16,-0.384929515245736,0.434,-2.30414746543779
3,1,406,"congruent","most_con",1,-1.37480347446903,-2.46305418719212,17,-0.299389622968906,0.408,-2.45098039215686
3,1,387,"congruent","most_con",1,-1.35315302605219,-2.58397932816537,18,-0.213849730692075,0.406,-2.46305418719212
3,1,432,"incongruent","most_con",1,-1.33150257763536,-2.31481481481481,19,-0.128309838415245,0.387,-2.58397932816537
3,1,382,"congruent","most_con",1,-1.30985212921852,-2.61780104712042,20,-0.0427699461384151,0.432,-2.31481481481481
3,1,396,"incongruent","most_con",1,-1.28820168080169,-2.52525252525253,21,0.0427699461384151,0.382,-2.61780104712042
3,1,450,"incongruent","most_con",1,-1.26655123238485,-2.22222222222222,22,0.128309838415245,0.396,-2.52525252525253
3,1,352,"congruent","most_con",1,-1.24490078396802,-2.84090909090909,23,0.213849730692075,0.45,-2.22222222222222
3,1,357,"congruent","most_con",1,-1.22325033555118,-2.80112044817927,24,0.299389622968906,0.352,-2.84090909090909
3,1,282,"congruent","most_con",1,-1.20159988713435,-3.54609929078014,25,0.384929515245736,0.357,-2.80112044817927
3,1,328,"congruent","most_con",1,-1.17994943871751,-3.04878048780488,26,0.470469407522566,0.282,-3.54609929078014
3,1,358,"congruent","most_con",1,-1.15829899030068,-2.79329608938547,27,0.556009299799396,0.328,-3.04878048780488
3,1,372,"congruent","most_con",1,-1.13664854188384,-2.68817204301075,28,0.641549192076226,0.358,-2.79329608938547
3,1,322,"incongruent","most_con",1,-1.11499809346701,-3.1055900621118,29,0.727089084353056,0.372,-2.68817204301075
3,1,375,"incongruent","most_con",1,-1.09334764505017,-2.66666666666667,30,0.812628976629887,0.322,-3.1055900621118
3,1,333,"congruent","most_con",1,-1.07169719663334,-3.003003003003,31,0.898168868906717,0.375,-2.66666666666667
3,1,410,"incongruent","most_con",1,-1.0500467482165,-2.4390243902439,32,0.983708761183547,0.333,-3.003003003003
3,1,360,"congruent","most_con",1,-1.02839629979967,-2.77777777777778,33,1.06924865346038,0.41,-2.4390243902439
3,1,326,"incongruent","most_con",1,-1.00674585138283,-3.06748466257669,34,1.15478854573721,0.36,-2.77777777777778
3,1,355,"congruent","most_con",1,-0.985095402965998,-2.8169014084507,35,1.24032843801404,0.326,-3.06748466257669
3,1,297,"congruent","most_con",1,-0.963444954549162,-3.36700336700337,36,1.32586833029087,0.355,-2.8169014084507
3,1,303,"congruent","most_con",1,-0.941794506132327,-3.3003300330033,37,1.4114082225677,0.297,-3.36700336700337
3,1,421,"incongruent","most_con",1,-0.920144057715492,-2.37529691211401,38,1.49694811484453,0.303,-3.3003300330033
3,1,322,"congruent","most_con",1,-0.898493609298657,-3.1055900621118,39,1.58248800712136,0.421,-2.37529691211401
3,1,456,"incongruent","most_con",1,-0.876843160881822,-2.19298245614035,40,1.66802789939819,0.322,-3.1055900621118
3,1,341,"incongruent","most_incon",2,-0.855192712464987,-2.93255131964809,1,-1.66802789939819,NA,NA
3,1,331,"congruent","most_incon",2,-0.833542264048152,-3.02114803625378,2,-1.58248800712136,0.341,-2.93255131964809
3,1,297,"congruent","most_incon",2,-0.811891815631317,-3.36700336700337,3,-1.49694811484453,0.331,-3.02114803625378
3,1,383,"incongruent","most_incon",2,-0.790241367214482,-2.61096605744125,4,-1.4114082225677,0.297,-3.36700336700337
3,1,373,"incongruent","most_incon",2,-0.768590918797647,-2.68096514745308,5,-1.32586833029087,0.383,-2.61096605744125
3,1,385,"incongruent","most_incon",2,-0.746940470380811,-2.5974025974026,6,-1.24032843801404,0.373,-2.68096514745308
3,1,351,"congruent","most_incon",2,-0.725290021963976,-2.84900284900285,7,-1.15478854573721,0.385,-2.5974025974026
3,1,381,"congruent","most_incon",2,-0.703639573547141,-2.6246719160105,8,-1.06924865346038,0.351,-2.84900284900285
3,1,307,"incongruent","most_incon",2,-0.681989125130306,-3.25732899022801,9,-0.983708761183547,0.381,-2.6246719160105
3,0,289,"incongruent","most_incon",2,-0.660338676713471,-3.46020761245675,10,-0.898168868906717,0.307,-3.25732899022801
3,1,358,"incongruent","most_incon",2,-0.638688228296636,-2.79329608938547,11,-0.812628976629887,0.289,-3.46020761245675
3,1,412,"incongruent","most_incon",2,-0.617037779879801,-2.42718446601942,12,-0.727089084353056,0.358,-2.79329608938547
3,1,401,"incongruent","most_incon",2,-0.595387331462966,-2.49376558603491,13,-0.641549192076226,0.412,-2.42718446601942
3,1,399,"congruent","most_incon",2,-0.57373688304613,-2.5062656641604,14,-0.556009299799396,0.401,-2.49376558603491
3,1,381,"incongruent","most_incon",2,-0.552086434629295,-2.6246719160105,15,-0.470469407522566,0.399,-2.5062656641604
3,1,395,"incongruent","most_incon",2,-0.53043598621246,-2.53164556962025,16,-0.384929515245736,0.381,-2.6246719160105
3,1,456,"congruent","most_incon",2,-0.508785537795625,-2.19298245614035,17,-0.299389622968906,0.395,-2.53164556962025
3,1,382,"congruent","most_incon",2,-0.48713508937879,-2.61780104712042,18,-0.213849730692075,0.456,-2.19298245614035
3,1,403,"incongruent","most_incon",2,-0.465484640961955,-2.48138957816377,19,-0.128309838415245,0.382,-2.61780104712042
3,1,401,"incongruent","most_incon",2,-0.44383419254512,-2.49376558603491,20,-0.0427699461384151,0.403,-2.48138957816377
3,1,367,"incongruent","most_incon",2,-0.422183744128285,-2.72479564032698,21,0.0427699461384151,0.401,-2.49376558603491
3,1,340,"incongruent","most_incon",2,-0.40053329571145,-2.94117647058824,22,0.128309838415245,0.367,-2.72479564032698
3,1,370,"congruent","most_incon",2,-0.378882847294614,-2.7027027027027,23,0.213849730692075,0.34,-2.94117647058824
3,1,448,"incongruent","most_incon",2,-0.357232398877779,-2.23214285714286,24,0.299389622968906,0.37,-2.7027027027027
3,1,398,"incongruent","most_incon",2,-0.335581950460944,-2.51256281407035,25,0.384929515245736,0.448,-2.23214285714286
3,1,460,"incongruent","most_incon",2,-0.313931502044109,-2.17391304347826,26,0.470469407522566,0.398,-2.51256281407035
3,1,448,"incongruent","most_incon",2,-0.292281053627274,-2.23214285714286,27,0.556009299799396,0.46,-2.17391304347826
3,1,398,"incongruent","most_incon",2,-0.270630605210439,-2.51256281407035,28,0.641549192076226,0.448,-2.23214285714286
3,1,356,"congruent","most_incon",2,-0.248980156793604,-2.80898876404494,29,0.727089084353056,0.398,-2.51256281407035
3,1,426,"incongruent","most_incon",2,-0.227329708376769,-2.34741784037559,30,0.812628976629887,0.356,-2.80898876404494
3,1,408,"congruent","most_incon",2,-0.205679259959934,-2.45098039215686,31,0.898168868906717,0.426,-2.34741784037559
3,0,326,"incongruent","most_incon",2,-0.184028811543098,-3.06748466257669,32,0.983708761183547,0.408,-2.45098039215686
3,1,387,"incongruent","most_incon",2,-0.162378363126263,-2.58397932816537,33,1.06924865346038,0.326,-3.06748466257669
3,1,400,"incongruent","most_incon",2,-0.140727914709428,-2.5,34,1.15478854573721,0.387,-2.58397932816537
3,1,406,"incongruent","most_incon",2,-0.119077466292593,-2.46305418719212,35,1.24032843801404,0.4,-2.5
3,1,404,"congruent","most_incon",2,-0.097427017875758,-2.47524752475248,36,1.32586833029087,0.406,-2.46305418719212
3,1,362,"congruent","most_incon",2,-0.0757765694589229,-2.76243093922652,37,1.4114082225677,0.404,-2.47524752475248
3,1,415,"incongruent","most_incon",2,-0.0541261210420878,-2.40963855421687,38,1.49694811484453,0.362,-2.76243093922652
3,1,373,"incongruent","most_incon",2,-0.0324756726252527,-2.68096514745308,39,1.58248800712136,0.415,-2.40963855421687
3,1,339,"incongruent","most_incon",2,-0.0108252242084176,-2.94985250737463,40,1.66802789939819,0.373,-2.68096514745308
3,1,382,"congruent","most_incon",3,0.0108252242084176,-2.61780104712042,1,-1.66802789939819,NA,NA
3,1,340,"congruent","most_incon",3,0.0324756726252527,-2.94117647058824,2,-1.58248800712136,0.382,-2.61780104712042
3,0,322,"incongruent","most_incon",3,0.0541261210420878,-3.1055900621118,3,-1.49694811484453,0.34,-2.94117647058824
3,1,368,"incongruent","most_incon",3,0.0757765694589229,-2.71739130434783,4,-1.4114082225677,0.322,-3.1055900621118
3,1,421,"incongruent","most_incon",3,0.097427017875758,-2.37529691211401,5,-1.32586833029087,0.368,-2.71739130434783
3,1,354,"incongruent","most_incon",3,0.119077466292593,-2.82485875706215,6,-1.24032843801404,0.421,-2.37529691211401
3,1,376,"incongruent","most_incon",3,0.140727914709428,-2.65957446808511,7,-1.15478854573721,0.354,-2.82485875706215
3,1,326,"congruent","most_incon",3,0.162378363126263,-3.06748466257669,8,-1.06924865346038,0.376,-2.65957446808511
3,1,388,"incongruent","most_incon",3,0.184028811543098,-2.57731958762887,9,-0.983708761183547,0.326,-3.06748466257669
3,1,322,"incongruent","most_incon",3,0.205679259959934,-3.1055900621118,10,-0.898168868906717,0.388,-2.57731958762887
3,1,383,"incongruent","most_incon",3,0.227329708376769,-2.61096605744125,11,-0.812628976629887,0.322,-3.1055900621118
3,1,404,"incongruent","most_incon",3,0.248980156793604,-2.47524752475248,12,-0.727089084353056,0.383,-2.61096605744125
3,1,402,"congruent","most_incon",3,0.270630605210439,-2.48756218905473,13,-0.641549192076226,0.404,-2.47524752475248
3,1,336,"incongruent","most_incon",3,0.292281053627274,-2.97619047619048,14,-0.556009299799396,0.402,-2.48756218905473
3,1,366,"congruent","most_incon",3,0.313931502044109,-2.73224043715847,15,-0.470469407522566,0.336,-2.97619047619048
3,1,403,"incongruent","most_incon",3,0.335581950460944,-2.48138957816377,16,-0.384929515245736,0.366,-2.73224043715847
3,1,377,"congruent","most_incon",3,0.357232398877779,-2.6525198938992,17,-0.299389622968906,0.403,-2.48138957816377
3,1,343,"incongruent","most_incon",3,0.378882847294614,-2.91545189504373,18,-0.213849730692075,0.377,-2.6525198938992
3,1,340,"incongruent","most_incon",3,0.40053329571145,-2.94117647058824,19,-0.128309838415245,0.343,-2.91545189504373
3,0,338,"incongruent","most_incon",3,0.422183744128285,-2.9585798816568,20,-0.0427699461384151,0.34,-2.94117647058824
3,1,424,"incongruent","most_incon",3,0.44383419254512,-2.35849056603774,21,0.0427699461384151,0.338,-2.9585798816568
3,1,429,"incongruent","most_incon",3,0.465484640961955,-2.33100233100233,22,0.128309838415245,0.424,-2.35849056603774
3,1,387,"incongruent","most_incon",3,0.48713508937879,-2.58397932816537,23,0.213849730692075,0.429,-2.33100233100233
3,1,401,"incongruent","most_incon",3,0.508785537795625,-2.49376558603491,24,0.299389622968906,0.387,-2.58397932816537
3,1,391,"incongruent","most_incon",3,0.53043598621246,-2.55754475703325,25,0.384929515245736,0.401,-2.49376558603491
3,1,404,"incongruent","most_incon",3,0.552086434629295,-2.47524752475248,26,0.470469407522566,0.391,-2.55754475703325
3,1,297,"incongruent","most_incon",3,0.57373688304613,-3.36700336700337,27,0.556009299799396,0.404,-2.47524752475248
3,1,327,"congruent","most_incon",3,0.595387331462966,-3.05810397553517,28,0.641549192076226,0.297,-3.36700336700337
3,1,301,"congruent","most_incon",3,0.617037779879801,-3.32225913621262,29,0.727089084353056,0.327,-3.05810397553517
3,1,379,"incongruent","most_incon",3,0.638688228296636,-2.63852242744063,30,0.812628976629887,0.301,-3.32225913621262
3,1,401,"incongruent","most_incon",3,0.660338676713471,-2.49376558603491,31,0.898168868906717,0.379,-2.63852242744063
3,1,454,"incongruent","most_incon",3,0.681989125130306,-2.20264317180617,32,0.983708761183547,0.401,-2.49376558603491
3,1,379,"congruent","most_incon",3,0.703639573547141,-2.63852242744063,33,1.06924865346038,0.454,-2.20264317180617
3,1,377,"incongruent","most_incon",3,0.725290021963976,-2.6525198938992,34,1.15478854573721,0.379,-2.63852242744063
3,1,383,"incongruent","most_incon",3,0.746940470380811,-2.61096605744125,35,1.24032843801404,0.377,-2.6525198938992
3,1,333,"congruent","most_incon",3,0.768590918797647,-3.003003003003,36,1.32586833029087,0.383,-2.61096605744125
3,1,347,"incongruent","most_incon",3,0.790241367214482,-2.88184438040346,37,1.4114082225677,0.333,-3.003003003003
3,1,360,"congruent","most_incon",3,0.811891815631317,-2.77777777777778,38,1.49694811484453,0.347,-2.88184438040346
3,1,318,"congruent","most_incon",3,0.833542264048152,-3.14465408805031,39,1.58248800712136,0.36,-2.77777777777778
3,1,371,"incongruent","most_incon",3,0.855192712464987,-2.69541778975741,40,1.66802789939819,0.318,-3.14465408805031
3,1,385,"incongruent","most_con",4,0.876843160881822,-2.5974025974026,1,-1.66802789939819,NA,NA
3,1,359,"incongruent","most_con",4,0.898493609298657,-2.78551532033426,2,-1.58248800712136,0.385,-2.5974025974026
3,1,333,"incongruent","most_con",4,0.920144057715492,-3.003003003003,3,-1.49694811484453,0.359,-2.78551532033426
3,1,338,"congruent","most_con",4,0.941794506132327,-2.9585798816568,4,-1.4114082225677,0.333,-3.003003003003
3,1,336,"congruent","most_con",4,0.963444954549162,-2.97619047619048,5,-1.32586833029087,0.338,-2.9585798816568
3,1,325,"congruent","most_con",4,0.985095402965998,-3.07692307692308,6,-1.24032843801404,0.336,-2.97619047619048
3,1,315,"congruent","most_con",4,1.00674585138283,-3.17460317460317,7,-1.15478854573721,0.325,-3.07692307692308
3,1,305,"congruent","most_con",4,1.02839629979967,-3.27868852459016,8,-1.06924865346038,0.315,-3.17460317460317
3,0,334,"congruent","most_con",4,1.0500467482165,-2.9940119760479,9,-0.983708761183547,0.305,-3.27868852459016
3,1,348,"congruent","most_con",4,1.07169719663334,-2.8735632183908,10,-0.898168868906717,0.334,-2.9940119760479
3,1,394,"incongruent","most_con",4,1.09334764505017,-2.53807106598985,11,-0.812628976629887,0.348,-2.8735632183908
3,1,344,"congruent","most_con",4,1.11499809346701,-2.90697674418605,12,-0.727089084353056,0.394,-2.53807106598985
3,1,318,"congruent","most_con",4,1.13664854188384,-3.14465408805031,13,-0.641549192076226,0.344,-2.90697674418605
3,1,426,"incongruent","most_con",4,1.15829899030068,-2.34741784037559,14,-0.556009299799396,0.318,-3.14465408805031
3,1,368,"congruent","most_con",4,1.17994943871751,-2.71739130434783,15,-0.470469407522566,0.426,-2.34741784037559
3,1,350,"congruent","most_con",4,1.20159988713435,-2.85714285714286,16,-0.384929515245736,0.368,-2.71739130434783
3,1,364,"congruent","most_con",4,1.22325033555118,-2.74725274725275,17,-0.299389622968906,0.35,-2.85714285714286
3,1,354,"incongruent","most_con",4,1.24490078396802,-2.82485875706215,18,-0.213849730692075,0.364,-2.74725274725275
3,1,312,"congruent","most_con",4,1.26655123238485,-3.20512820512821,19,-0.128309838415245,0.354,-2.82485875706215
3,1,285,"incongruent","most_con",4,1.28820168080169,-3.50877192982456,20,-0.0427699461384151,0.312,-3.20512820512821
3,1,274,"congruent","most_con",4,1.30985212921852,-3.64963503649635,21,0.0427699461384151,0.285,-3.50877192982456
3,1,392,"incongruent","most_con",4,1.33150257763536,-2.55102040816327,22,0.128309838415245,0.274,-3.64963503649635
3,1,318,"congruent","most_con",4,1.35315302605219,-3.14465408805031,23,0.213849730692075,0.392,-2.55102040816327
3,1,324,"congruent","most_con",4,1.37480347446903,-3.08641975308642,24,0.299389622968906,0.318,-3.14465408805031
3,1,314,"congruent","most_con",4,1.39645392288586,-3.18471337579618,25,0.384929515245736,0.324,-3.08641975308642
3,1,287,"congruent","most_con",4,1.4181043713027,-3.48432055749129,26,0.470469407522566,0.314,-3.18471337579618
3,1,365,"congruent","most_con",4,1.43975481971953,-2.73972602739726,27,0.556009299799396,0.287,-3.48432055749129
3,1,378,"incongruent","most_con",4,1.46140526813637,-2.64550264550265,28,0.641549192076226,0.365,-2.73972602739726
3,1,368,"incongruent","most_con",4,1.48305571655321,-2.71739130434783,29,0.727089084353056,0.378,-2.64550264550265
3,1,333,"congruent","most_con",4,1.50470616497004,-3.003003003003,30,0.812628976629887,0.368,-2.71739130434783
3,1,251,"congruent","most_con",4,1.52635661338688,-3.98406374501992,31,0.898168868906717,0.333,-3.003003003003
3,1,329,"congruent","most_con",4,1.54800706180371,-3.03951367781155,32,0.983708761183547,0.251,-3.98406374501992
3,1,303,"congruent","most_con",4,1.56965751022055,-3.3003300330033,33,1.06924865346038,0.329,-3.03951367781155
3,1,285,"congruent","most_con",4,1.59130795863738,-3.50877192982456,34,1.15478854573721,0.303,-3.3003300330033
3,1,338,"congruent","most_con",4,1.61295840705422,-2.9585798816568,35,1.24032843801404,0.285,-3.50877192982456
3,1,327,"incongruent","most_con",4,1.63460885547105,-3.05810397553517,36,1.32586833029087,0.338,-2.9585798816568
3,1,277,"congruent","most_con",4,1.65625930388789,-3.6101083032491,37,1.4114082225677,0.327,-3.05810397553517
3,1,299,"incongruent","most_con",4,1.67790975230472,-3.34448160535117,38,1.49694811484453,0.277,-3.6101083032491
3,1,281,"congruent","most_con",4,1.69956020072156,-3.55871886120996,39,1.58248800712136,0.299,-3.34448160535117
3,1,423,"congruent","most_con",4,1.72121064913839,-2.36406619385343,40,1.66802789939819,0.281,-3.55871886120996
4,1,432,"congruent","most_con",1,-1.72121064913839,-2.31481481481481,1,-1.66802789939819,NA,NA
4,1,366,"congruent","most_con",1,-1.69956020072156,-2.73224043715847,2,-1.58248800712136,0.432,-2.31481481481481
4,1,307,"congruent","most_con",1,-1.67790975230472,-3.25732899022801,3,-1.49694811484453,0.366,-2.73224043715847
4,1,305,"congruent","most_con",1,-1.65625930388789,-3.27868852459016,4,-1.4114082225677,0.307,-3.25732899022801
4,1,287,"congruent","most_con",1,-1.63460885547105,-3.48432055749129,5,-1.32586833029087,0.305,-3.27868852459016
4,1,317,"congruent","most_con",1,-1.61295840705422,-3.15457413249211,6,-1.24032843801404,0.287,-3.48432055749129
4,1,346,"congruent","most_con",1,-1.59130795863738,-2.89017341040462,7,-1.15478854573721,0.317,-3.15457413249211
4,1,359,"congruent","most_con",1,-1.56965751022055,-2.78551532033426,8,-1.06924865346038,0.346,-2.89017341040462
4,1,293,"congruent","most_con",1,-1.54800706180371,-3.41296928327645,9,-0.983708761183547,0.359,-2.78551532033426
4,1,307,"congruent","most_con",1,-1.52635661338688,-3.25732899022801,10,-0.898168868906717,0.293,-3.41296928327645
4,1,425,"incongruent","most_con",1,-1.50470616497004,-2.35294117647059,11,-0.812628976629887,0.307,-3.25732899022801
4,1,335,"congruent","most_con",1,-1.48305571655321,-2.98507462686567,12,-0.727089084353056,0.425,-2.35294117647059
4,1,293,"congruent","most_con",1,-1.46140526813637,-3.41296928327645,13,-0.641549192076226,0.335,-2.98507462686567
4,1,337,"incongruent","most_con",1,-1.43975481971953,-2.9673590504451,14,-0.556009299799396,0.293,-3.41296928327645
4,1,359,"congruent","most_con",1,-1.4181043713027,-2.78551532033426,15,-0.470469407522566,0.337,-2.9673590504451
4,1,349,"congruent","most_con",1,-1.39645392288586,-2.86532951289398,16,-0.384929515245736,0.359,-2.78551532033426
4,1,323,"congruent","most_con",1,-1.37480347446903,-3.09597523219814,17,-0.299389622968906,0.349,-2.86532951289398
4,1,297,"congruent","most_con",1,-1.35315302605219,-3.36700336700337,18,-0.213849730692075,0.323,-3.09597523219814
4,1,342,"incongruent","most_con",1,-1.33150257763536,-2.92397660818713,19,-0.128309838415245,0.297,-3.36700336700337
4,1,340,"incongruent","most_con",1,-1.30985212921852,-2.94117647058824,20,-0.0427699461384151,0.342,-2.92397660818713
4,1,345,"congruent","most_con",1,-1.28820168080169,-2.89855072463768,21,0.0427699461384151,0.34,-2.94117647058824
4,1,303,"incongruent","most_con",1,-1.26655123238485,-3.3003300330033,22,0.128309838415245,0.345,-2.89855072463768
4,1,341,"congruent","most_con",1,-1.24490078396802,-2.93255131964809,23,0.213849730692075,0.303,-3.3003300330033
4,1,355,"congruent","most_con",1,-1.22325033555118,-2.8169014084507,24,0.299389622968906,0.341,-2.93255131964809
4,1,280,"congruent","most_con",1,-1.20159988713435,-3.57142857142857,25,0.384929515245736,0.355,-2.8169014084507
4,1,294,"congruent","most_con",1,-1.17994943871751,-3.40136054421769,26,0.470469407522566,0.28,-3.57142857142857
4,1,340,"incongruent","most_con",1,-1.15829899030068,-2.94117647058824,27,0.556009299799396,0.294,-3.40136054421769
4,1,313,"incongruent","most_con",1,-1.13664854188384,-3.19488817891374,28,0.641549192076226,0.34,-2.94117647058824
4,1,319,"incongruent","most_con",1,-1.11499809346701,-3.13479623824451,29,0.727089084353056,0.313,-3.19488817891374
4,1,284,"congruent","most_con",1,-1.09334764505017,-3.52112676056338,30,0.812628976629887,0.319,-3.13479623824451
4,1,298,"congruent","most_con",1,-1.07169719663334,-3.35570469798658,31,0.898168868906717,0.284,-3.52112676056338
4,1,272,"incongruent","most_con",1,-1.0500467482165,-3.67647058823529,32,0.983708761183547,0.298,-3.35570469798658
4,1,302,"congruent","most_con",1,-1.02839629979967,-3.3112582781457,33,1.06924865346038,0.272,-3.67647058823529
4,NA,NA,"incongruent","most_con",1,-1.00674585138283,NA,34,1.15478854573721,0.302,-3.3112582781457
4,1,313,"incongruent","most_con",1,-0.985095402965998,-3.19488817891374,35,1.24032843801404,0.236,-4.23728813559322
4,1,326,"congruent","most_con",1,-0.963444954549162,-3.06748466257669,36,1.32586833029087,0.313,-3.19488817891374
4,1,372,"incongruent","most_con",1,-0.941794506132327,-2.68817204301075,37,1.4114082225677,0.326,-3.06748466257669
4,1,298,"congruent","most_con",1,-0.920144057715492,-3.35570469798658,38,1.49694811484453,0.372,-2.68817204301075
4,1,264,"congruent","most_con",1,-0.898493609298657,-3.78787878787879,39,1.58248800712136,0.298,-3.35570469798658
4,1,286,"congruent","most_con",1,-0.876843160881822,-3.4965034965035,40,1.66802789939819,0.264,-3.78787878787879
4,0,339,"incongruent","most_incon",2,-0.855192712464987,-2.94985250737463,1,-1.66802789939819,NA,NA
4,1,352,"congruent","most_incon",2,-0.833542264048152,-2.84090909090909,2,-1.58248800712136,0.339,-2.94985250737463
4,1,350,"congruent","most_incon",2,-0.811891815631317,-2.85714285714286,3,-1.49694811484453,0.352,-2.84090909090909
4,1,308,"incongruent","most_incon",2,-0.790241367214482,-3.24675324675325,4,-1.4114082225677,0.35,-2.85714285714286
4,1,330,"incongruent","most_incon",2,-0.768590918797647,-3.03030303030303,5,-1.32586833029087,0.308,-3.24675324675325
4,1,311,"incongruent","most_incon",2,-0.746940470380811,-3.21543408360129,6,-1.24032843801404,0.33,-3.03030303030303
4,1,269,"incongruent","most_incon",2,-0.725290021963976,-3.71747211895911,7,-1.15478854573721,0.311,-3.21543408360129
4,1,315,"incongruent","most_incon",2,-0.703639573547141,-3.17460317460317,8,-1.06924865346038,0.269,-3.71747211895911
4,1,264,"incongruent","most_incon",2,-0.681989125130306,-3.78787878787879,9,-0.983708761183547,0.315,-3.17460317460317
4,1,326,"incongruent","most_incon",2,-0.660338676713471,-3.06748466257669,10,-0.898168868906717,0.264,-3.78787878787879
4,1,276,"incongruent","most_incon",2,-0.638688228296636,-3.6231884057971,11,-0.812628976629887,0.326,-3.06748466257669
4,1,337,"incongruent","most_incon",2,-0.617037779879801,-2.9673590504451,12,-0.727089084353056,0.276,-3.6231884057971
4,1,295,"congruent","most_incon",2,-0.595387331462966,-3.38983050847458,13,-0.641549192076226,0.337,-2.9673590504451
4,1,325,"incongruent","most_incon",2,-0.57373688304613,-3.07692307692308,14,-0.556009299799396,0.295,-3.38983050847458
4,1,331,"incongruent","most_incon",2,-0.552086434629295,-3.02114803625378,15,-0.470469407522566,0.325,-3.07692307692308
4,1,328,"incongruent","most_incon",2,-0.53043598621246,-3.04878048780488,16,-0.384929515245736,0.331,-3.02114803625378
4,1,301,"incongruent","most_incon",2,-0.508785537795625,-3.32225913621262,17,-0.299389622968906,0.328,-3.04878048780488
4,1,283,"congruent","most_incon",2,-0.48713508937879,-3.53356890459364,18,-0.213849730692075,0.301,-3.32225913621262
4,1,273,"incongruent","most_incon",2,-0.465484640961955,-3.66300366300366,19,-0.128309838415245,0.283,-3.53356890459364
4,1,335,"incongruent","most_incon",2,-0.44383419254512,-2.98507462686567,20,-0.0427699461384151,0.273,-3.66300366300366
4,1,317,"incongruent","most_incon",2,-0.422183744128285,-3.15457413249211,21,0.0427699461384151,0.335,-2.98507462686567
4,NA,NA,"incongruent","most_incon",2,-0.40053329571145,NA,22,0.128309838415245,0.317,-3.15457413249211
4,1,320,"congruent","most_incon",2,-0.378882847294614,-3.125,23,0.213849730692075,0.243,-4.11522633744856
4,1,301,"congruent","most_incon",2,-0.357232398877779,-3.32225913621262,24,0.299389622968906,0.32,-3.125
4,1,315,"incongruent","most_incon",2,-0.335581950460944,-3.17460317460317,25,0.384929515245736,0.301,-3.32225913621262
4,1,369,"incongruent","most_incon",2,-0.313931502044109,-2.710027100271,26,0.470469407522566,0.315,-3.17460317460317
4,1,327,"congruent","most_incon",2,-0.292281053627274,-3.05810397553517,27,0.556009299799396,0.369,-2.710027100271
4,1,388,"incongruent","most_incon",2,-0.270630605210439,-2.57731958762887,28,0.641549192076226,0.327,-3.05810397553517
4,1,306,"congruent","most_incon",2,-0.248980156793604,-3.26797385620915,29,0.727089084353056,0.388,-2.57731958762887
4,1,352,"incongruent","most_incon",2,-0.227329708376769,-2.84090909090909,30,0.812628976629887,0.306,-3.26797385620915
4,1,269,"incongruent","most_incon",2,-0.205679259959934,-3.71747211895911,31,0.898168868906717,0.352,-2.84090909090909
4,1,355,"incongruent","most_incon",2,-0.184028811543098,-2.8169014084507,32,0.983708761183547,0.269,-3.71747211895911
4,1,345,"incongruent","most_incon",2,-0.162378363126263,-2.89855072463768,33,1.06924865346038,0.355,-2.8169014084507
4,1,318,"incongruent","most_incon",2,-0.140727914709428,-3.14465408805031,34,1.15478854573721,0.345,-2.89855072463768
4,1,316,"congruent","most_incon",2,-0.119077466292593,-3.16455696202532,35,1.24032843801404,0.318,-3.14465408805031
4,1,258,"incongruent","most_incon",2,-0.097427017875758,-3.87596899224806,36,1.32586833029087,0.316,-3.16455696202532
4,NA,NA,"incongruent","most_incon",2,-0.0757765694589229,NA,37,1.4114082225677,0.258,-3.87596899224806
4,1,293,"congruent","most_incon",2,-0.0541261210420878,-3.41296928327645,38,1.49694811484453,0.224,-4.46428571428571
4,1,298,"congruent","most_incon",2,-0.0324756726252527,-3.35570469798658,39,1.58248800712136,0.293,-3.41296928327645
4,1,320,"congruent","most_incon",2,-0.0108252242084176,-3.125,40,1.66802789939819,0.298,-3.35570469798658
4,1,399,"congruent","most_incon",3,0.0108252242084176,-2.5062656641604,1,-1.66802789939819,NA,NA
4,1,341,"incongruent","most_incon",3,0.0324756726252527,-2.93255131964809,2,-1.58248800712136,0.399,-2.5062656641604
4,1,347,"incongruent","most_incon",3,0.0541261210420878,-2.88184438040346,3,-1.49694811484453,0.341,-2.93255131964809
4,1,288,"incongruent","most_incon",3,0.0757765694589229,-3.47222222222222,4,-1.4114082225677,0.347,-2.88184438040346
4,1,334,"congruent","most_incon",3,0.097427017875758,-2.9940119760479,5,-1.32586833029087,0.288,-3.47222222222222
4,1,308,"incongruent","most_incon",3,0.119077466292593,-3.24675324675325,6,-1.24032843801404,0.334,-2.9940119760479
4,1,281,"congruent","most_incon",3,0.140727914709428,-3.55871886120996,7,-1.15478854573721,0.308,-3.24675324675325
4,1,271,"incongruent","most_incon",3,0.162378363126263,-3.690036900369,8,-1.06924865346038,0.281,-3.55871886120996
4,1,293,"incongruent","most_incon",3,0.184028811543098,-3.41296928327645,9,-0.983708761183547,0.271,-3.690036900369
4,1,322,"incongruent","most_incon",3,0.205679259959934,-3.1055900621118,10,-0.898168868906717,0.293,-3.41296928327645
4,1,336,"congruent","most_incon",3,0.227329708376769,-2.97619047619048,11,-0.812628976629887,0.322,-3.1055900621118
4,1,318,"congruent","most_incon",3,0.248980156793604,-3.14465408805031,12,-0.727089084353056,0.336,-2.97619047619048
4,1,300,"congruent","most_incon",3,0.270630605210439,-3.33333333333333,13,-0.641549192076226,0.318,-3.14465408805031
4,1,305,"incongruent","most_incon",3,0.292281053627274,-3.27868852459016,14,-0.556009299799396,0.3,-3.33333333333333
4,1,278,"incongruent","most_incon",3,0.313931502044109,-3.59712230215827,15,-0.470469407522566,0.305,-3.27868852459016
4,1,252,"congruent","most_incon",3,0.335581950460944,-3.96825396825397,16,-0.384929515245736,0.278,-3.59712230215827
4,1,314,"incongruent","most_incon",3,0.357232398877779,-3.18471337579618,17,-0.299389622968906,0.252,-3.96825396825397
4,1,336,"incongruent","most_incon",3,0.378882847294614,-2.97619047619048,18,-0.213849730692075,0.314,-3.18471337579618
4,1,350,"incongruent","most_incon",3,0.40053329571145,-2.85714285714286,19,-0.128309838415245,0.336,-2.97619047619048
4,1,251,"congruent","most_incon",3,0.422183744128285,-3.98406374501992,20,-0.0427699461384151,0.35,-2.85714285714286
4,NA,NA,"incongruent","most_incon",3,0.44383419254512,NA,21,0.0427699461384151,0.251,-3.98406374501992
4,1,294,"incongruent","most_incon",3,0.465484640961955,-3.40136054421769,22,0.128309838415245,0.248,-4.03225806451613
4,NA,NA,"incongruent","most_incon",3,0.48713508937879,NA,23,0.213849730692075,0.294,-3.40136054421769
4,1,330,"congruent","most_incon",3,0.508785537795625,-3.03030303030303,24,0.299389622968906,0.236,-4.23728813559322
4,NA,NA,"incongruent","most_incon",3,0.53043598621246,NA,25,0.384929515245736,0.33,-3.03030303030303
4,1,309,"incongruent","most_incon",3,0.552086434629295,-3.23624595469256,26,0.470469407522566,0.248,-4.03225806451613
4,1,307,"incongruent","most_incon",3,0.57373688304613,-3.25732899022801,27,0.556009299799396,0.309,-3.23624595469256
4,1,304,"congruent","most_incon",3,0.595387331462966,-3.28947368421053,28,0.641549192076226,0.307,-3.25732899022801
4,1,278,"incongruent","most_incon",3,0.617037779879801,-3.59712230215827,29,0.727089084353056,0.304,-3.28947368421053
4,1,332,"congruent","most_incon",3,0.638688228296636,-3.01204819277108,30,0.812628976629887,0.278,-3.59712230215827
4,1,290,"incongruent","most_incon",3,0.660338676713471,-3.44827586206897,31,0.898168868906717,0.332,-3.01204819277108
4,1,327,"incongruent","most_incon",3,0.681989125130306,-3.05810397553517,32,0.983708761183547,0.29,-3.44827586206897
4,1,309,"incongruent","most_incon",3,0.703639573547141,-3.23624595469256,33,1.06924865346038,0.327,-3.05810397553517
4,1,299,"congruent","most_incon",3,0.725290021963976,-3.34448160535117,34,1.15478854573721,0.309,-3.23624595469256
4,1,312,"incongruent","most_incon",3,0.746940470380811,-3.20512820512821,35,1.24032843801404,0.299,-3.34448160535117
4,1,334,"incongruent","most_incon",3,0.768590918797647,-2.9940119760479,36,1.32586833029087,0.312,-3.20512820512821
4,1,315,"incongruent","most_incon",3,0.790241367214482,-3.17460317460317,37,1.4114082225677,0.334,-2.9940119760479
4,1,321,"incongruent","most_incon",3,0.811891815631317,-3.11526479750779,38,1.49694811484453,0.315,-3.17460317460317
4,1,319,"incongruent","most_incon",3,0.833542264048152,-3.13479623824451,39,1.58248800712136,0.321,-3.11526479750779
4,1,269,"incongruent","most_incon",3,0.855192712464987,-3.71747211895911,40,1.66802789939819,0.319,-3.13479623824451
4,1,251,"congruent","most_con",4,0.876843160881822,-3.98406374501992,1,-1.66802789939819,NA,NA
4,1,264,"incongruent","most_con",4,0.898493609298657,-3.78787878787879,2,-1.58248800712136,0.251,-3.98406374501992
4,1,301,"congruent","most_con",4,0.920144057715492,-3.32225913621262,3,-1.49694811484453,0.264,-3.78787878787879
4,1,331,"incongruent","most_con",4,0.941794506132327,-3.02114803625378,4,-1.4114082225677,0.301,-3.32225913621262
4,1,305,"congruent","most_con",4,0.963444954549162,-3.27868852459016,5,-1.32586833029087,0.331,-3.02114803625378
4,NA,NA,"incongruent","most_con",4,0.985095402965998,NA,6,-1.24032843801404,0.305,-3.27868852459016
4,1,309,"congruent","most_con",4,1.00674585138283,-3.23624595469256,7,-1.15478854573721,0.199,-5.0251256281407
4,1,346,"congruent","most_con",4,1.02839629979967,-2.89017341040462,8,-1.06924865346038,0.309,-3.23624595469256
4,1,264,"congruent","most_con",4,1.0500467482165,-3.78787878787879,9,-0.983708761183547,0.346,-2.89017341040462
4,1,333,"congruent","most_con",4,1.07169719663334,-3.003003003003,10,-0.898168868906717,0.264,-3.78787878787879
4,1,275,"congruent","most_con",4,1.09334764505017,-3.63636363636364,11,-0.812628976629887,0.333,-3.003003003003
4,1,329,"incongruent","most_con",4,1.11499809346701,-3.03951367781155,12,-0.727089084353056,0.275,-3.63636363636364
4,1,318,"congruent","most_con",4,1.13664854188384,-3.14465408805031,13,-0.641549192076226,0.329,-3.03951367781155
4,1,268,"congruent","most_con",4,1.15829899030068,-3.73134328358209,14,-0.556009299799396,0.318,-3.14465408805031
4,NA,NA,"congruent","most_con",4,1.17994943871751,NA,15,-0.470469407522566,0.268,-3.73134328358209
4,1,280,"incongruent","most_con",4,1.20159988713435,-3.57142857142857,16,-0.384929515245736,0.226,-4.42477876106195
4,1,277,"congruent","most_con",4,1.22325033555118,-3.6101083032491,17,-0.299389622968906,0.28,-3.57142857142857
4,1,315,"congruent","most_con",4,1.24490078396802,-3.17460317460317,18,-0.213849730692075,0.277,-3.6101083032491
4,0,344,"incongruent","most_con",4,1.26655123238485,-2.90697674418605,19,-0.128309838415245,0.315,-3.17460317460317
4,1,302,"congruent","most_con",4,1.28820168080169,-3.3112582781457,20,-0.0427699461384151,0.344,-2.90697674418605
4,1,268,"incongruent","most_con",4,1.30985212921852,-3.73134328358209,21,0.0427699461384151,0.302,-3.3112582781457
4,1,314,"incongruent","most_con",4,1.33150257763536,-3.18471337579618,22,0.128309838415245,0.268,-3.73134328358209
4,1,328,"congruent","most_con",4,1.35315302605219,-3.04878048780488,23,0.213849730692075,0.314,-3.18471337579618
4,1,340,"incongruent","most_con",4,1.37480347446903,-2.94117647058824,24,0.299389622968906,0.328,-3.04878048780488
4,1,338,"congruent","most_con",4,1.39645392288586,-2.9585798816568,25,0.384929515245736,0.34,-2.94117647058824
4,1,296,"congruent","most_con",4,1.4181043713027,-3.37837837837838,26,0.470469407522566,0.338,-2.9585798816568
4,NA,NA,"congruent","most_con",4,1.43975481971953,-4.20168067226891,27,0.556009299799396,0.296,-3.37837837837838
4,1,268,"congruent","most_con",4,1.46140526813637,-3.73134328358209,28,0.641549192076226,0.238,-4.20168067226891
4,1,290,"congruent","most_con",4,1.48305571655321,-3.44827586206897,29,0.727089084353056,0.268,-3.73134328358209
4,1,287,"incongruent","most_con",4,1.50470616497004,-3.48432055749129,30,0.812628976629887,0.29,-3.44827586206897
4,1,268,"congruent","most_con",4,1.52635661338688,-3.73134328358209,31,0.898168868906717,0.287,-3.48432055749129
4,1,306,"congruent","most_con",4,1.54800706180371,-3.26797385620915,32,0.983708761183547,0.268,-3.73134328358209
4,1,304,"congruent","most_con",4,1.56965751022055,-3.28947368421053,33,1.06924865346038,0.306,-3.26797385620915
4,1,342,"incongruent","most_con",4,1.59130795863738,-2.92397660818713,34,1.15478854573721,0.304,-3.28947368421053
4,1,323,"congruent","most_con",4,1.61295840705422,-3.09597523219814,35,1.24032843801404,0.342,-2.92397660818713
4,1,305,"incongruent","most_con",4,1.63460885547105,-3.27868852459016,36,1.32586833029087,0.323,-3.09597523219814
4,1,303,"congruent","most_con",4,1.65625930388789,-3.3003300330033,37,1.4114082225677,0.305,-3.27868852459016
4,NA,NA,"congruent","most_con",4,1.67790975230472,-4.0983606557377,38,1.49694811484453,0.303,-3.3003300330033
4,1,322,"congruent","most_con",4,1.69956020072156,-3.1055900621118,39,1.58248800712136,0.244,-4.0983606557377
4,1,255,"congruent","most_con",4,1.72121064913839,-3.92156862745098,40,1.66802789939819,0.322,-3.1055900621118
5,1,442,"congruent","most_con",1,-1.72121064913839,-2.26244343891403,1,-1.66802789939819,NA,NA
5,1,400,"congruent","most_con",1,-1.69956020072156,-2.5,2,-1.58248800712136,0.442,-2.26244343891403
5,1,374,"incongruent","most_con",1,-1.67790975230472,-2.67379679144385,3,-1.49694811484453,0.4,-2.5
5,1,364,"incongruent","most_con",1,-1.65625930388789,-2.74725274725275,4,-1.4114082225677,0.374,-2.67379679144385
5,1,370,"congruent","most_con",1,-1.63460885547105,-2.7027027027027,5,-1.32586833029087,0.364,-2.74725274725275
5,1,384,"congruent","most_con",1,-1.61295840705422,-2.60416666666667,6,-1.24032843801404,0.37,-2.7027027027027
5,1,357,"congruent","most_con",1,-1.59130795863738,-2.80112044817927,7,-1.15478854573721,0.384,-2.60416666666667
5,1,347,"congruent","most_con",1,-1.56965751022055,-2.88184438040346,8,-1.06924865346038,0.357,-2.80112044817927
5,1,536,"incongruent","most_con",1,-1.54800706180371,-1.86567164179104,9,-0.983708761183547,0.347,-2.88184438040346
5,1,374,"congruent","most_con",1,-1.52635661338688,-2.67379679144385,10,-0.898168868906717,0.536,-1.86567164179104
5,1,332,"congruent","most_con",1,-1.50470616497004,-3.01204819277108,11,-0.812628976629887,0.374,-2.67379679144385
5,1,345,"congruent","most_con",1,-1.48305571655321,-2.89855072463768,12,-0.727089084353056,0.332,-3.01204819277108
5,1,367,"incongruent","most_con",1,-1.46140526813637,-2.72479564032698,13,-0.641549192076226,0.345,-2.89855072463768
5,1,333,"congruent","most_con",1,-1.43975481971953,-3.003003003003,14,-0.556009299799396,0.367,-2.72479564032698
5,1,443,"congruent","most_con",1,-1.4181043713027,-2.25733634311512,15,-0.470469407522566,0.333,-3.003003003003
5,1,360,"congruent","most_con",1,-1.39645392288586,-2.77777777777778,16,-0.384929515245736,0.443,-2.25733634311512
5,1,333,"congruent","most_con",1,-1.37480347446903,-3.003003003003,17,-0.299389622968906,0.36,-2.77777777777778
5,1,307,"congruent","most_con",1,-1.35315302605219,-3.25732899022801,18,-0.213849730692075,0.333,-3.003003003003
5,1,393,"congruent","most_con",1,-1.33150257763536,-2.54452926208651,19,-0.128309838415245,0.307,-3.25732899022801
5,1,367,"incongruent","most_con",1,-1.30985212921852,-2.72479564032698,20,-0.0427699461384151,0.393,-2.54452926208651
5,1,397,"incongruent","most_con",1,-1.28820168080169,-2.51889168765743,21,0.0427699461384151,0.367,-2.72479564032698
5,1,475,"congruent","most_con",1,-1.26655123238485,-2.10526315789474,22,0.128309838415245,0.397,-2.51889168765743
5,1,463,"congruent","most_con",1,-1.24490078396802,-2.15982721382289,23,0.213849730692075,0.475,-2.10526315789474
5,1,373,"congruent","most_con",1,-1.22325033555118,-2.68096514745308,24,0.299389622968906,0.463,-2.15982721382289
5,1,363,"incongruent","most_con",1,-1.20159988713435,-2.75482093663912,25,0.384929515245736,0.373,-2.68096514745308
5,1,433,"congruent","most_con",1,-1.17994943871751,-2.3094688221709,26,0.470469407522566,0.363,-2.75482093663912
5,1,391,"congruent","most_con",1,-1.15829899030068,-2.55754475703325,27,0.556009299799396,0.433,-2.3094688221709
5,1,388,"incongruent","most_con",1,-1.13664854188384,-2.57731958762887,28,0.641549192076226,0.391,-2.55754475703325
5,1,314,"congruent","most_con",1,-1.11499809346701,-3.18471337579618,29,0.727089084353056,0.388,-2.57731958762887
5,1,311,"congruent","most_con",1,-1.09334764505017,-3.21543408360129,30,0.812628976629887,0.314,-3.18471337579618
5,1,325,"congruent","most_con",1,-1.07169719663334,-3.07692307692308,31,0.898168868906717,0.311,-3.21543408360129
5,1,347,"congruent","most_con",1,-1.0500467482165,-2.88184438040346,32,0.983708761183547,0.325,-3.07692307692308
5,1,353,"congruent","most_con",1,-1.02839629979967,-2.8328611898017,33,1.06924865346038,0.347,-2.88184438040346
5,1,334,"congruent","most_con",1,-1.00674585138283,-2.9940119760479,34,1.15478854573721,0.353,-2.8328611898017
5,1,340,"incongruent","most_con",1,-0.985095402965998,-2.94117647058824,35,1.24032843801404,0.334,-2.9940119760479
5,1,378,"congruent","most_con",1,-0.963444954549162,-2.64550264550265,36,1.32586833029087,0.34,-2.94117647058824
5,1,391,"incongruent","most_con",1,-0.941794506132327,-2.55754475703325,37,1.4114082225677,0.378,-2.64550264550265
5,1,364,"incongruent","most_con",1,-0.920144057715492,-2.74725274725275,38,1.49694811484453,0.391,-2.55754475703325
5,1,330,"incongruent","most_con",1,-0.898493609298657,-3.03030303030303,39,1.58248800712136,0.364,-2.74725274725275
5,1,312,"congruent","most_con",1,-0.876843160881822,-3.20512820512821,40,1.66802789939819,0.33,-3.03030303030303
5,1,366,"incongruent","most_incon",2,-0.855192712464987,-2.73224043715847,1,-1.66802789939819,NA,NA
5,1,380,"incongruent","most_incon",2,-0.833542264048152,-2.63157894736842,2,-1.58248800712136,0.366,-2.73224043715847
5,1,386,"incongruent","most_incon",2,-0.811891815631317,-2.59067357512953,3,-1.49694811484453,0.38,-2.63157894736842
5,1,366,"congruent","most_incon",2,-0.790241367214482,-2.73224043715847,4,-1.4114082225677,0.386,-2.59067357512953
5,1,364,"incongruent","most_incon",2,-0.768590918797647,-2.74725274725275,5,-1.32586833029087,0.366,-2.73224043715847
5,1,394,"incongruent","most_incon",2,-0.746940470380811,-2.53807106598985,6,-1.24032843801404,0.364,-2.74725274725275
5,1,328,"incongruent","most_incon",2,-0.725290021963976,-3.04878048780488,7,-1.15478854573721,0.394,-2.53807106598985
5,1,318,"congruent","most_incon",2,-0.703639573547141,-3.14465408805031,8,-1.06924865346038,0.328,-3.04878048780488
5,1,372,"incongruent","most_incon",2,-0.681989125130306,-2.68817204301075,9,-0.983708761183547,0.318,-3.14465408805031
5,1,417,"incongruent","most_incon",2,-0.660338676713471,-2.39808153477218,10,-0.898168868906717,0.372,-2.68817204301075
5,1,358,"incongruent","most_incon",2,-0.638688228296636,-2.79329608938547,11,-0.812628976629887,0.417,-2.39808153477218
5,1,404,"incongruent","most_incon",2,-0.617037779879801,-2.47524752475248,12,-0.727089084353056,0.358,-2.79329608938547
5,1,378,"congruent","most_incon",2,-0.595387331462966,-2.64550264550265,13,-0.641549192076226,0.404,-2.47524752475248
5,1,416,"incongruent","most_incon",2,-0.57373688304613,-2.40384615384615,14,-0.556009299799396,0.378,-2.64550264550265
5,1,341,"congruent","most_incon",2,-0.552086434629295,-2.93255131964809,15,-0.470469407522566,0.416,-2.40384615384615
5,1,475,"incongruent","most_incon",2,-0.53043598621246,-2.10526315789474,16,-0.384929515245736,0.341,-2.93255131964809
5,1,377,"incongruent","most_incon",2,-0.508785537795625,-2.6525198938992,17,-0.299389622968906,0.475,-2.10526315789474
5,1,374,"congruent","most_incon",2,-0.48713508937879,-2.67379679144385,18,-0.213849730692075,0.377,-2.6525198938992
5,1,300,"congruent","most_incon",2,-0.465484640961955,-3.33333333333333,19,-0.128309838415245,0.374,-2.67379679144385
5,1,345,"incongruent","most_incon",2,-0.44383419254512,-2.89855072463768,20,-0.0427699461384151,0.3,-3.33333333333333
5,1,327,"incongruent","most_incon",2,-0.422183744128285,-3.05810397553517,21,0.0427699461384151,0.345,-2.89855072463768
5,1,349,"incongruent","most_incon",2,-0.40053329571145,-2.86532951289398,22,0.128309838415245,0.327,-3.05810397553517
5,1,371,"congruent","most_incon",2,-0.378882847294614,-2.69541778975741,23,0.213849730692075,0.349,-2.86532951289398
5,1,353,"incongruent","most_incon",2,-0.357232398877779,-2.8328611898017,24,0.299389622968906,0.371,-2.69541778975741
5,1,350,"incongruent","most_incon",2,-0.335581950460944,-2.85714285714286,25,0.384929515245736,0.353,-2.8328611898017
5,1,355,"incongruent","most_incon",2,-0.313931502044109,-2.8169014084507,26,0.470469407522566,0.35,-2.85714285714286
5,1,377,"congruent","most_incon",2,-0.292281053627274,-2.6525198938992,27,0.556009299799396,0.355,-2.8169014084507
5,1,343,"incongruent","most_incon",2,-0.270630605210439,-2.91545189504373,28,0.641549192076226,0.377,-2.6525198938992
5,1,325,"congruent","most_incon",2,-0.248980156793604,-3.07692307692308,29,0.727089084353056,0.343,-2.91545189504373
5,1,299,"incongruent","most_incon",2,-0.227329708376769,-3.34448160535117,30,0.812628976629887,0.325,-3.07692307692308
5,1,408,"incongruent","most_incon",2,-0.205679259959934,-2.45098039215686,31,0.898168868906717,0.299,-3.34448160535117
5,1,309,"incongruent","most_incon",2,-0.184028811543098,-3.23624595469256,32,0.983708761183547,0.408,-2.45098039215686
5,1,347,"incongruent","most_incon",2,-0.162378363126263,-2.88184438040346,33,1.06924865346038,0.309,-3.23624595469256
5,1,361,"congruent","most_incon",2,-0.140727914709428,-2.77008310249307,34,1.15478854573721,0.347,-2.88184438040346
5,1,399,"incongruent","most_incon",2,-0.119077466292593,-2.5062656641604,35,1.24032843801404,0.361,-2.77008310249307
5,1,404,"congruent","most_incon",2,-0.097427017875758,-2.47524752475248,36,1.32586833029087,0.399,-2.5062656641604
5,1,402,"incongruent","most_incon",2,-0.0757765694589229,-2.48756218905473,37,1.4114082225677,0.404,-2.47524752475248
5,1,344,"congruent","most_incon",2,-0.0541261210420878,-2.90697674418605,38,1.49694811484453,0.402,-2.48756218905473
5,1,349,"incongruent","most_incon",2,-0.0324756726252527,-2.86532951289398,39,1.58248800712136,0.344,-2.90697674418605
5,1,371,"incongruent","most_incon",2,-0.0108252242084176,-2.69541778975741,40,1.66802789939819,0.349,-2.86532951289398
5,1,434,"incongruent","most_incon",3,0.0108252242084176,-2.30414746543779,1,-1.66802789939819,NA,NA
5,1,414,"incongruent","most_incon",3,0.0324756726252527,-2.41545893719807,2,-1.58248800712136,0.434,-2.30414746543779
5,1,380,"congruent","most_incon",3,0.0541261210420878,-2.63157894736842,3,-1.49694811484453,0.414,-2.41545893719807
5,1,338,"incongruent","most_incon",3,0.0757765694589229,-2.9585798816568,4,-1.4114082225677,0.38,-2.63157894736842
5,1,360,"congruent","most_incon",3,0.097427017875758,-2.77777777777778,5,-1.32586833029087,0.338,-2.9585798816568
5,1,422,"incongruent","most_incon",3,0.119077466292593,-2.3696682464455,6,-1.24032843801404,0.36,-2.77777777777778
5,1,347,"incongruent","most_incon",3,0.140727914709428,-2.88184438040346,7,-1.15478854573721,0.422,-2.3696682464455
5,1,337,"incongruent","most_incon",3,0.162378363126263,-2.9673590504451,8,-1.06924865346038,0.347,-2.88184438040346
5,1,390,"incongruent","most_incon",3,0.184028811543098,-2.56410256410256,9,-0.983708761183547,0.337,-2.9673590504451
5,1,372,"congruent","most_incon",3,0.205679259959934,-2.68817204301075,10,-0.898168868906717,0.39,-2.56410256410256
5,1,338,"incongruent","most_incon",3,0.227329708376769,-2.9585798816568,11,-0.812628976629887,0.372,-2.68817204301075
5,1,407,"incongruent","most_incon",3,0.248980156793604,-2.45700245700246,12,-0.727089084353056,0.338,-2.9585798816568
5,1,341,"incongruent","most_incon",3,0.270630605210439,-2.93255131964809,13,-0.641549192076226,0.407,-2.45700245700246
5,1,355,"incongruent","most_incon",3,0.292281053627274,-2.8169014084507,14,-0.556009299799396,0.341,-2.93255131964809
5,1,377,"incongruent","most_incon",3,0.313931502044109,-2.6525198938992,15,-0.470469407522566,0.355,-2.8169014084507
5,1,382,"congruent","most_incon",3,0.335581950460944,-2.61780104712042,16,-0.384929515245736,0.377,-2.6525198938992
5,1,356,"incongruent","most_incon",3,0.357232398877779,-2.80898876404494,17,-0.299389622968906,0.382,-2.61780104712042
5,1,361,"incongruent","most_incon",3,0.378882847294614,-2.77008310249307,18,-0.213849730692075,0.356,-2.80898876404494
5,1,327,"incongruent","most_incon",3,0.40053329571145,-3.05810397553517,19,-0.128309838415245,0.361,-2.77008310249307
5,1,373,"congruent","most_incon",3,0.422183744128285,-2.68096514745308,20,-0.0427699461384151,0.327,-3.05810397553517
5,1,451,"incongruent","most_incon",3,0.44383419254512,-2.21729490022173,21,0.0427699461384151,0.373,-2.68096514745308
5,1,385,"incongruent","most_incon",3,0.465484640961955,-2.5974025974026,22,0.128309838415245,0.451,-2.21729490022173
5,1,341,"congruent","most_incon",3,0.48713508937879,-2.93255131964809,23,0.213849730692075,0.385,-2.5974025974026
5,1,387,"incongruent","most_incon",3,0.508785537795625,-2.58397932816537,24,0.299389622968906,0.341,-2.93255131964809
5,1,393,"incongruent","most_incon",3,0.53043598621246,-2.54452926208651,25,0.384929515245736,0.387,-2.58397932816537
5,1,447,"incongruent","most_incon",3,0.552086434629295,-2.23713646532438,26,0.470469407522566,0.393,-2.54452926208651
5,1,365,"incongruent","most_incon",3,0.57373688304613,-2.73972602739726,27,0.556009299799396,0.447,-2.23713646532438
5,1,362,"incongruent","most_incon",3,0.595387331462966,-2.76243093922652,28,0.641549192076226,0.365,-2.73972602739726
5,1,352,"congruent","most_incon",3,0.617037779879801,-2.84090909090909,29,0.727089084353056,0.362,-2.76243093922652
5,1,341,"congruent","most_incon",3,0.638688228296636,-2.93255131964809,30,0.812628976629887,0.352,-2.84090909090909
5,1,323,"congruent","most_incon",3,0.660338676713471,-3.09597523219814,31,0.898168868906717,0.341,-2.93255131964809
5,1,297,"incongruent","most_incon",3,0.681989125130306,-3.36700336700337,32,0.983708761183547,0.323,-3.09597523219814
5,1,263,"incongruent","most_incon",3,0.703639573547141,-3.80228136882129,33,1.06924865346038,0.297,-3.36700336700337
5,1,316,"congruent","most_incon",3,0.725290021963976,-3.16455696202532,34,1.15478854573721,0.263,-3.80228136882129
5,1,346,"congruent","most_incon",3,0.746940470380811,-2.89017341040462,35,1.24032843801404,0.316,-3.16455696202532
5,1,360,"congruent","most_incon",3,0.768590918797647,-2.77777777777778,36,1.32586833029087,0.346,-2.89017341040462
5,1,357,"incongruent","most_incon",3,0.790241367214482,-2.80112044817927,37,1.4114082225677,0.36,-2.77777777777778
5,1,387,"incongruent","most_incon",3,0.811891815631317,-2.58397932816537,38,1.49694811484453,0.357,-2.80112044817927
5,1,320,"incongruent","most_incon",3,0.833542264048152,-3.125,39,1.58248800712136,0.387,-2.58397932816537
5,1,342,"incongruent","most_incon",3,0.855192712464987,-2.92397660818713,40,1.66802789939819,0.32,-3.125
5,1,356,"congruent","most_con",4,0.876843160881822,-2.80898876404494,1,-1.66802789939819,NA,NA
5,1,346,"congruent","most_con",4,0.898493609298657,-2.89017341040462,2,-1.58248800712136,0.356,-2.80898876404494
5,1,376,"congruent","most_con",4,0.920144057715492,-2.65957446808511,3,-1.49694811484453,0.346,-2.89017341040462
5,1,348,"congruent","most_con",4,0.941794506132327,-2.8735632183908,4,-1.4114082225677,0.376,-2.65957446808511
5,1,370,"congruent","most_con",4,0.963444954549162,-2.7027027027027,5,-1.32586833029087,0.348,-2.8735632183908
5,1,448,"incongruent","most_con",4,0.985095402965998,-2.23214285714286,6,-1.24032843801404,0.37,-2.7027027027027
5,1,366,"congruent","most_con",4,1.00674585138283,-2.73224043715847,7,-1.15478854573721,0.448,-2.23214285714286
5,1,372,"incongruent","most_con",4,1.02839629979967,-2.68817204301075,8,-1.06924865346038,0.366,-2.73224043715847
5,1,346,"congruent","most_con",4,1.0500467482165,-2.89017341040462,9,-0.983708761183547,0.372,-2.68817204301075
5,1,415,"incongruent","most_con",4,1.07169719663334,-2.40963855421687,10,-0.898168868906717,0.346,-2.89017341040462
5,1,493,"incongruent","most_con",4,1.09334764505017,-2.02839756592292,11,-0.812628976629887,0.415,-2.40963855421687
5,1,370,"congruent","most_con",4,1.11499809346701,-2.7027027027027,12,-0.727089084353056,0.493,-2.02839756592292
5,1,312,"congruent","most_con",4,1.13664854188384,-3.20512820512821,13,-0.641549192076226,0.37,-2.7027027027027
5,1,366,"incongruent","most_con",4,1.15829899030068,-2.73224043715847,14,-0.556009299799396,0.312,-3.20512820512821
5,1,603,"congruent","most_con",4,1.17994943871751,-1.65837479270315,15,-0.470469407522566,0.366,-2.73224043715847
5,1,385,"congruent","most_con",4,1.20159988713435,-2.5974025974026,16,-0.384929515245736,0.603,-1.65837479270315
5,1,287,"incongruent","most_con",4,1.22325033555118,-3.48432055749129,17,-0.299389622968906,0.385,-2.5974025974026
5,1,316,"congruent","most_con",4,1.24490078396802,-3.16455696202532,18,-0.213849730692075,0.287,-3.48432055749129
5,1,362,"congruent","most_con",4,1.26655123238485,-2.76243093922652,19,-0.128309838415245,0.316,-3.16455696202532
5,1,344,"incongruent","most_con",4,1.28820168080169,-2.90697674418605,20,-0.0427699461384151,0.362,-2.76243093922652
5,1,357,"congruent","most_con",4,1.30985212921852,-2.80112044817927,21,0.0427699461384151,0.344,-2.90697674418605
5,1,395,"congruent","most_con",4,1.33150257763536,-2.53164556962025,22,0.128309838415245,0.357,-2.80112044817927
5,1,337,"congruent","most_con",4,1.35315302605219,-2.9673590504451,23,0.213849730692075,0.395,-2.53164556962025
5,1,351,"congruent","most_con",4,1.37480347446903,-2.84900284900285,24,0.299389622968906,0.337,-2.9673590504451
5,1,309,"incongruent","most_con",4,1.39645392288586,-3.23624595469256,25,0.384929515245736,0.351,-2.84900284900285
5,1,361,"congruent","most_con",4,1.4181043713027,-2.77008310249307,26,0.470469407522566,0.309,-3.23624595469256
5,1,359,"congruent","most_con",4,1.43975481971953,-2.78551532033426,27,0.556009299799396,0.361,-2.77008310249307
5,1,349,"congruent","most_con",4,1.46140526813637,-2.86532951289398,28,0.641549192076226,0.359,-2.78551532033426
5,1,331,"congruent","most_con",4,1.48305571655321,-3.02114803625378,29,0.727089084353056,0.349,-2.86532951289398
5,1,329,"congruent","most_con",4,1.50470616497004,-3.03951367781155,30,0.812628976629887,0.331,-3.02114803625378
5,1,534,"incongruent","most_con",4,1.52635661338688,-1.87265917602996,31,0.898168868906717,0.329,-3.03951367781155
5,1,324,"congruent","most_con",4,1.54800706180371,-3.08641975308642,32,0.983708761183547,0.534,-1.87265917602996
5,1,345,"congruent","most_con",4,1.56965751022055,-2.89855072463768,33,1.06924865346038,0.324,-3.08641975308642
5,1,295,"congruent","most_con",4,1.59130795863738,-3.38983050847458,34,1.15478854573721,0.345,-2.89855072463768
5,1,341,"congruent","most_con",4,1.61295840705422,-2.93255131964809,35,1.24032843801404,0.295,-3.38983050847458
5,1,299,"incongruent","most_con",4,1.63460885547105,-3.34448160535117,36,1.32586833029087,0.341,-2.93255131964809
5,1,320,"incongruent","most_con",4,1.65625930388789,-3.125,37,1.4114082225677,0.299,-3.34448160535117
5,1,398,"incongruent","most_con",4,1.67790975230472,-2.51256281407035,38,1.49694811484453,0.32,-3.125
5,1,356,"congruent","most_con",4,1.69956020072156,-2.80898876404494,39,1.58248800712136,0.398,-2.51256281407035
5,1,329,"congruent","most_con",4,1.72121064913839,-3.03951367781155,40,1.66802789939819,0.356,-2.80898876404494
6,1,382,"congruent","most_con",1,-1.72121064913839,-2.61780104712042,1,-1.66802789939819,NA,NA
6,1,412,"congruent","most_con",1,-1.69956020072156,-2.42718446601942,2,-1.58248800712136,0.382,-2.61780104712042
6,1,401,"congruent","most_con",1,-1.67790975230472,-2.49376558603491,3,-1.49694811484453,0.412,-2.42718446601942
6,1,407,"incongruent","most_con",1,-1.65625930388789,-2.45700245700246,4,-1.4114082225677,0.401,-2.49376558603491
6,1,389,"congruent","most_con",1,-1.63460885547105,-2.5706940874036,5,-1.32586833029087,0.407,-2.45700245700246
6,1,402,"incongruent","most_con",1,-1.61295840705422,-2.48756218905473,6,-1.24032843801404,0.389,-2.5706940874036
6,1,392,"congruent","most_con",1,-1.59130795863738,-2.55102040816327,7,-1.15478854573721,0.402,-2.48756218905473
6,1,414,"congruent","most_con",1,-1.56965751022055,-2.41545893719807,8,-1.06924865346038,0.392,-2.55102040816327
6,1,412,"congruent","most_con",1,-1.54800706180371,-2.42718446601942,9,-0.983708761183547,0.414,-2.41545893719807
6,1,393,"congruent","most_con",1,-1.52635661338688,-2.54452926208651,10,-0.898168868906717,0.412,-2.42718446601942
6,1,350,"congruent","most_con",1,-1.50470616497004,-2.85714285714286,11,-0.812628976629887,0.393,-2.54452926208651
6,1,388,"incongruent","most_con",1,-1.48305571655321,-2.57731958762887,12,-0.727089084353056,0.35,-2.85714285714286
6,1,418,"congruent","most_con",1,-1.46140526813637,-2.39234449760766,13,-0.641549192076226,0.388,-2.57731958762887
6,1,456,"congruent","most_con",1,-1.43975481971953,-2.19298245614035,14,-0.556009299799396,0.418,-2.39234449760766
6,1,358,"congruent","most_con",1,-1.4181043713027,-2.79329608938547,15,-0.470469407522566,0.456,-2.19298245614035
6,1,372,"incongruent","most_con",1,-1.39645392288586,-2.68817204301075,16,-0.384929515245736,0.358,-2.79329608938547
6,1,376,"congruent","most_con",1,-1.37480347446903,-2.65957446808511,17,-0.299389622968906,0.372,-2.68817204301075
6,1,382,"congruent","most_con",1,-1.35315302605219,-2.61780104712042,18,-0.213849730692075,0.376,-2.65957446808511
6,1,348,"congruent","most_con",1,-1.33150257763536,-2.8735632183908,19,-0.128309838415245,0.382,-2.61780104712042
6,1,386,"congruent","most_con",1,-1.30985212921852,-2.59067357512953,20,-0.0427699461384151,0.348,-2.8735632183908
6,1,352,"congruent","most_con",1,-1.28820168080169,-2.84090909090909,21,0.0427699461384151,0.386,-2.59067357512953
6,1,373,"congruent","most_con",1,-1.26655123238485,-2.68096514745308,22,0.128309838415245,0.352,-2.84090909090909
6,1,363,"congruent","most_con",1,-1.24490078396802,-2.75482093663912,23,0.213849730692075,0.373,-2.68096514745308
6,1,312,"congruent","most_con",1,-1.22325033555118,-3.20512820512821,24,0.299389622968906,0.363,-2.75482093663912
6,1,302,"congruent","most_con",1,-1.20159988713435,-3.3112582781457,25,0.384929515245736,0.312,-3.20512820512821
6,1,380,"congruent","most_con",1,-1.17994943871751,-2.63157894736842,26,0.470469407522566,0.302,-3.3112582781457
6,1,362,"incongruent","most_con",1,-1.15829899030068,-2.76243093922652,27,0.556009299799396,0.38,-2.63157894736842
6,1,407,"incongruent","most_con",1,-1.13664854188384,-2.45700245700246,28,0.641549192076226,0.362,-2.76243093922652
6,1,405,"incongruent","most_con",1,-1.11499809346701,-2.46913580246914,29,0.727089084353056,0.407,-2.45700245700246
6,1,347,"incongruent","most_con",1,-1.09334764505017,-2.88184438040346,30,0.812628976629887,0.405,-2.46913580246914
6,1,360,"congruent","most_con",1,-1.07169719663334,-2.77777777777778,31,0.898168868906717,0.347,-2.88184438040346
6,1,326,"congruent","most_con",1,-1.0500467482165,-3.06748466257669,32,0.983708761183547,0.36,-2.77777777777778
6,1,363,"congruent","most_con",1,-1.02839629979967,-2.75482093663912,33,1.06924865346038,0.326,-3.06748466257669
6,1,337,"congruent","most_con",1,-1.00674585138283,-2.9673590504451,34,1.15478854573721,0.363,-2.75482093663912
6,1,351,"incongruent","most_con",1,-0.985095402965998,-2.84900284900285,35,1.24032843801404,0.337,-2.9673590504451
6,1,301,"congruent","most_con",1,-0.963444954549162,-3.32225913621262,36,1.32586833029087,0.351,-2.84900284900285
6,1,355,"incongruent","most_con",1,-0.941794506132327,-2.8169014084507,37,1.4114082225677,0.301,-3.32225913621262
6,1,383,"incongruent","most_con",1,-0.920144057715492,-2.61096605744125,38,1.49694811484453,0.355,-2.8169014084507
6,1,461,"congruent","most_con",1,-0.898493609298657,-2.16919739696312,39,1.58248800712136,0.383,-2.61096605744125
6,0,363,"incongruent","most_con",1,-0.876843160881822,-2.75482093663912,40,1.66802789939819,0.461,-2.16919739696312
6,1,401,"incongruent","most_incon",2,-0.855192712464987,-2.49376558603491,1,-1.66802789939819,NA,NA
6,1,431,"incongruent","most_incon",2,-0.833542264048152,-2.32018561484919,2,-1.58248800712136,0.401,-2.49376558603491
6,1,365,"congruent","most_incon",2,-0.811891815631317,-2.73972602739726,3,-1.49694811484453,0.431,-2.32018561484919
6,1,434,"congruent","most_incon",2,-0.790241367214482,-2.30414746543779,4,-1.4114082225677,0.365,-2.73972602739726
6,1,415,"incongruent","most_incon",2,-0.768590918797647,-2.40963855421687,5,-1.32586833029087,0.434,-2.30414746543779
6,1,365,"incongruent","most_incon",2,-0.746940470380811,-2.73972602739726,6,-1.24032843801404,0.415,-2.40963855421687
6,1,427,"incongruent","most_incon",2,-0.725290021963976,-2.34192037470726,7,-1.15478854573721,0.365,-2.73972602739726
6,1,401,"congruent","most_incon",2,-0.703639573547141,-2.49376558603491,8,-1.06924865346038,0.427,-2.34192037470726
6,1,406,"incongruent","most_incon",2,-0.681989125130306,-2.46305418719212,9,-0.983708761183547,0.401,-2.49376558603491
6,1,348,"incongruent","most_incon",2,-0.660338676713471,-2.8735632183908,10,-0.898168868906717,0.406,-2.46305418719212
6,1,442,"congruent","most_incon",2,-0.638688228296636,-2.26244343891403,11,-0.812628976629887,0.348,-2.8735632183908
6,1,351,"congruent","most_incon",2,-0.617037779879801,-2.84900284900285,12,-0.727089084353056,0.442,-2.26244343891403
6,1,517,"incongruent","most_incon",2,-0.595387331462966,-1.93423597678917,13,-0.641549192076226,0.351,-2.84900284900285
6,1,379,"incongruent","most_incon",2,-0.57373688304613,-2.63852242744063,14,-0.556009299799396,0.517,-1.93423597678917
6,1,448,"incongruent","most_incon",2,-0.552086434629295,-2.23214285714286,15,-0.470469407522566,0.379,-2.63852242744063
6,1,350,"incongruent","most_incon",2,-0.53043598621246,-2.85714285714286,16,-0.384929515245736,0.448,-2.23214285714286
6,1,380,"congruent","most_incon",2,-0.508785537795625,-2.63157894736842,17,-0.299389622968906,0.35,-2.85714285714286
6,1,346,"incongruent","most_incon",2,-0.48713508937879,-2.89017341040462,18,-0.213849730692075,0.38,-2.63157894736842
6,1,511,"congruent","most_incon",2,-0.465484640961955,-1.95694716242661,19,-0.128309838415245,0.346,-2.89017341040462
6,1,396,"incongruent","most_incon",2,-0.44383419254512,-2.52525252525253,20,-0.0427699461384151,0.511,-1.95694716242661
6,1,362,"incongruent","most_incon",2,-0.422183744128285,-2.76243093922652,21,0.0427699461384151,0.396,-2.52525252525253
6,1,368,"congruent","most_incon",2,-0.40053329571145,-2.71739130434783,22,0.128309838415245,0.362,-2.76243093922652
6,1,502,"incongruent","most_incon",2,-0.378882847294614,-1.99203187250996,23,0.213849730692075,0.368,-2.71739130434783
6,1,420,"congruent","most_incon",2,-0.357232398877779,-2.38095238095238,24,0.299389622968906,0.502,-1.99203187250996
6,1,410,"incongruent","most_incon",2,-0.335581950460944,-2.4390243902439,25,0.384929515245736,0.42,-2.38095238095238
6,1,374,"congruent","most_incon",2,-0.313931502044109,-2.67379679144385,26,0.470469407522566,0.41,-2.4390243902439
6,1,420,"incongruent","most_incon",2,-0.292281053627274,-2.38095238095238,27,0.556009299799396,0.374,-2.67379679144385
6,1,434,"congruent","most_incon",2,-0.270630605210439,-2.30414746543779,28,0.641549192076226,0.42,-2.38095238095238
6,1,368,"incongruent","most_incon",2,-0.248980156793604,-2.71739130434783,29,0.727089084353056,0.434,-2.30414746543779
6,1,398,"incongruent","most_incon",2,-0.227329708376769,-2.51256281407035,30,0.812628976629887,0.368,-2.71739130434783
6,1,403,"incongruent","most_incon",2,-0.205679259959934,-2.48138957816377,31,0.898168868906717,0.398,-2.51256281407035
