"subj_idx","response","rt","cond","stim","stim_cond","trial_z","trial","rt_log_trim_grp","prev_rt","block_trial"
1,1,0.486,"ThreeGo","Go","Go_ThreeGo",-1.71038320383982,2,2.68663626926229,0.64,2
1,1,0.38,"ThreeGo","Go","Go_ThreeGo",-1.69594959030531,3,2.57978359661681,0.486,3
1,1,0,"ThreeGo","NoGo","NoGo_ThreeGo",-1.6815159767708,4,0,0.38,4
1,1,0.533,"FiveGo","Go","Go_FiveGo",-1.66708236323628,5,2.72672720902657,0,1
1,1,0.467,"FiveGo","Go","Go_FiveGo",-1.65264874970177,6,2.66931688056611,0.533,2
1,1,0.497,"FiveGo","Go","Go_FiveGo",-1.63821513616726,7,2.69635638873333,0.467,3
1,1,0.422,"FiveGo","Go","Go_FiveGo",-1.62378152263274,8,2.62531245096167,0.497,4
1,1,0.468,"FiveGo","Go","Go_FiveGo",-1.60934790909823,9,2.67024585307412,0.422,5
1,1,0,"FiveGo","NoGo","NoGo_FiveGo",-1.59491429556372,10,0,0.468,6
1,1,0.389,"OneGo","Go","Go_OneGo",-1.5804806820292,11,2.58994960132571,0,1
1,1,0,"OneGo","NoGo","NoGo_OneGo",-1.56604706849469,12,0,0.389,2
1,1,0.51,"SevenGo","Go","Go_SevenGo",-1.55161345496018,13,2.70757017609794,0,1
1,1,0.484,"SevenGo","Go","Go_SevenGo",-1.53717984142566,14,2.68484536164441,0.51,2
1,1,0.426,"SevenGo","Go","Go_SevenGo",-1.52274622789115,15,2.62940959910272,0.484,3
1,1,0.431,"SevenGo","Go","Go_SevenGo",-1.50831261435664,16,2.63447727016073,0.426,4
1,1,0.445,"SevenGo","Go","Go_SevenGo",-1.49387900082212,17,2.64836001098093,0.431,5
1,1,0.507,"SevenGo","Go","Go_SevenGo",-1.47944538728761,18,2.70500795933334,0.445,6
1,1,0.457,"SevenGo","Go","Go_SevenGo",-1.4650117737531,19,2.65991620006985,0.507,7
1,1,0,"SevenGo","NoGo","NoGo_SevenGo",-1.45057816021858,20,0,0.457,8
1,1,0.569,"SevenGo","Go","Go_SevenGo",-1.43614454668407,21,2.75511226639507,0,9
1,1,0.351,"SevenGo","Go","Go_SevenGo",-1.42171093314956,22,2.54530711646582,0.569,10
1,1,0.333,"SevenGo","Go","Go_SevenGo",-1.40727731961504,23,2.52244423350632,0.351,11
1,1,0.434,"SevenGo","Go","Go_SevenGo",-1.39284370608053,24,2.63748972951251,0.333,12
1,1,0.48,"SevenGo","Go","Go_SevenGo",-1.37841009254602,25,2.68124123737559,0.434,13
1,1,0.374,"SevenGo","Go","Go_SevenGo",-1.3639764790115,26,2.57287160220048,0.48,14
1,1,0.42,"SevenGo","Go","Go_SevenGo",-1.34954286547699,27,2.6232492903979,0.374,15
1,0,0.322,"SevenGo","NoGo","NoGo_SevenGo",-1.33510925194248,28,2.50785587169583,0.42,16
1,1,0.549,"OneGo","Go","Go_OneGo",-1.32067563840796,29,2.73957234445009,0.322,3
1,1,0,"OneGo","NoGo","NoGo_OneGo",-1.30624202487345,30,0,0.549,4
1,1,0.51,"ThreeGo","Go","Go_ThreeGo",-1.29180841133894,31,2.70757017609794,0,5
1,1,0.435,"ThreeGo","Go","Go_ThreeGo",-1.27737479780442,32,2.63848925695464,0.51,6
1,1,0.465,"ThreeGo","Go","Go_ThreeGo",-1.26294118426991,33,2.66745295288995,0.435,7
1,1,0,"ThreeGo","NoGo","NoGo_ThreeGo",-1.2485075707354,34,0,0.465,8
1,1,0.523,"FiveGo","Go","Go_FiveGo",-1.23407395720088,35,2.71850168886727,0,7
1,1,0.344,"FiveGo","Go","Go_FiveGo",-1.21964034366637,36,2.53655844257153,0.523,8
1,1,0.334,"FiveGo","Go","Go_FiveGo",-1.20520673013186,37,2.52374646681156,0.344,9
1,1,0.372,"FiveGo","Go","Go_FiveGo",-1.19077311659734,38,2.5705429398819,0.334,10
1,1,0.362,"FiveGo","Go","Go_FiveGo",-1.17633950306283,39,2.55870857053317,0.372,11
1,1,0,"FiveGo","NoGo","NoGo_FiveGo",-1.16190588952832,40,0,0.362,12
1,1,0.418,"OneGo","Go","Go_OneGo",-1.1474722759938,41,2.62117628177504,0,5
1,1,0,"OneGo","NoGo","NoGo_OneGo",-1.13303866245929,42,0,0.418,6
1,1,0.404,"ThreeGo","Go","Go_ThreeGo",-1.11860504892478,43,2.60638136511061,0,9
1,1,0.346,"ThreeGo","Go","Go_ThreeGo",-1.10417143539027,44,2.53907609879278,0.404,10
1,1,0.415,"ThreeGo","Go","Go_ThreeGo",-1.08973782185575,45,2.61804809671209,0.346,11
1,1,0,"ThreeGo","NoGo","NoGo_ThreeGo",-1.07530420832124,46,0,0.415,12
1,1,0.336,"SevenGo","Go","Go_SevenGo",-1.06087059478673,47,2.52633927738984,0,17
1,1,0.278,"SevenGo","Go","Go_SevenGo",-1.04643698125221,48,2.44404479591808,0.336,18
1,1,0.411,"SevenGo","Go","Go_SevenGo",-1.0320033677177,49,2.61384182187607,0.278,19
1,1,0.433,"SevenGo","Go","Go_SevenGo",-1.01756975418319,50,2.63648789635337,0.411,20
1,1,0.359,"SevenGo","Go","Go_SevenGo",-1.00313614064867,51,2.55509444857832,0.433,21
1,1,0.357,"SevenGo","Go","Go_SevenGo",-0.988702527114159,52,2.55266821611219,0.359,22
1,1,0.354,"SevenGo","Go","Go_SevenGo",-0.974268913579646,53,2.54900326202579,0.357,23
1,1,0,"SevenGo","NoGo","NoGo_SevenGo",-0.959835300045133,54,0,0.354,24
1,1,0.436,"FiveGo","Go","Go_FiveGo",-0.945401686510619,55,2.63948648926859,0,13
1,1,0.401,"FiveGo","Go","Go_FiveGo",-0.930968072976106,56,2.60314437262018,0.436,14
1,1,0.615,"FiveGo","Go","Go_FiveGo",-0.916534459441593,57,2.78887511577542,0.401,15
1,1,0.477,"FiveGo","Go","Go_FiveGo",-0.902100845907079,58,2.67851837904011,0.615,16
1,1,0.379,"FiveGo","Go","Go_FiveGo",-0.887667232372566,59,2.57863920996807,0.477,17
1,1,0,"FiveGo","NoGo","NoGo_FiveGo",-0.873233618838053,60,0,0.379,18
1,1,0.331,"FiveGo","Go","Go_FiveGo",-0.85880000530354,61,2.51982799377572,0,19
1,1,0.273,"FiveGo","Go","Go_FiveGo",-0.844366391769026,62,2.43616264704076,0.331,20
1,1,0.312,"FiveGo","Go","Go_FiveGo",-0.829932778234513,63,2.49415459401844,0.273,21
1,1,0.262,"FiveGo","Go","Go_FiveGo",-0.8154991647,64,2.41830129131975,0.312,22
1,1,0.331,"FiveGo","Go","Go_FiveGo",-0.801065551165487,65,2.51982799377572,0.262,23
1,1,0,"FiveGo","NoGo","NoGo_FiveGo",-0.786631937630973,66,0,0.331,24
1,1,0.54,"OneGo","Go","Go_OneGo",-0.77219832409646,67,2.73239375982297,0,7
1,1,0,"OneGo","NoGo","NoGo_OneGo",-0.757764710561947,68,0,0.54,8
1,1,0.46,"SevenGo","Go","Go_SevenGo",-0.743331097027433,69,2.66275783168157,0,25
1,1,0.41,"SevenGo","Go","Go_SevenGo",-0.72889748349292,70,2.61278385671974,0.46,26
1,1,0.441,"SevenGo","Go","Go_SevenGo",-0.714463869958407,71,2.64443858946784,0.41,27
1,1,0.431,"SevenGo","Go","Go_SevenGo",-0.700030256423894,72,2.63447727016073,0.441,28
1,1,0.492,"SevenGo","Go","Go_SevenGo",-0.68559664288938,73,2.69196510276736,0.431,29
1,1,0.466,"SevenGo","Go","Go_SevenGo",-0.671163029354867,74,2.66838591669,0.492,30
1,1,0.4,"SevenGo","Go","Go_SevenGo",-0.656729415820354,75,2.60205999132796,0.466,31
1,0,0.294,"SevenGo","NoGo","NoGo_SevenGo",-0.64229580228584,76,2.46834733041216,0.4,32
1,1,0.568,"ThreeGo","Go","Go_ThreeGo",-0.627862188751327,77,2.75434833571102,0.294,13
1,1,0.508,"ThreeGo","Go","Go_ThreeGo",-0.598994961682301,79,2.70586371228392,0.67,15
1,1,0,"ThreeGo","NoGo","NoGo_ThreeGo",-0.584561348147787,80,0,0.508,16
1,1,0.462,"ThreeGo","Go","Go_ThreeGo",-0.555694121078761,82,2.66464197555613,0.656,18
1,1,0.532,"ThreeGo","Go","Go_ThreeGo",-0.541260507544248,83,2.72591163229505,0.462,19
1,1,0,"ThreeGo","NoGo","NoGo_ThreeGo",-0.526826894009734,84,0,0.532,20
1,1,0.5,"OneGo","Go","Go_OneGo",-0.512393280475221,85,2.69897000433602,0,9
1,1,0,"OneGo","NoGo","NoGo_OneGo",-0.497959666940708,86,0,0.5,10
1,1,0.502,"FiveGo","Go","Go_FiveGo",-0.483526053406195,87,2.70070371714502,0,25
1,1,0.588,"FiveGo","Go","Go_FiveGo",-0.469092439871681,88,2.76937732607614,0.502,26
1,1,0.378,"FiveGo","Go","Go_FiveGo",-0.454658826337168,89,2.57749179983723,0.588,27
1,1,0.375,"FiveGo","Go","Go_FiveGo",-0.440225212802655,90,2.57403126772772,0.378,28
1,1,0.429,"FiveGo","Go","Go_FiveGo",-0.425791599268141,91,2.63245729218472,0.375,29
1,1,0,"FiveGo","NoGo","NoGo_FiveGo",-0.411357985733628,92,0,0.429,30
1,1,0.254,"SevenGo","Go","Go_SevenGo",-0.396924372199115,93,2.40483371661994,0,33
1,1,0.379,"SevenGo","Go","Go_SevenGo",-0.382490758664602,94,2.57863920996807,0.254,34
1,1,0.409,"SevenGo","Go","Go_SevenGo",-0.368057145130088,95,2.61172330800734,0.379,35
1,1,0.343,"SevenGo","Go","Go_SevenGo",-0.353623531595575,96,2.53529412004277,0.409,36
1,1,0.421,"SevenGo","Go","Go_SevenGo",-0.339189918061062,97,2.62428209583567,0.343,37
1,1,0.483,"SevenGo","Go","Go_SevenGo",-0.324756304526549,98,2.68394713075151,0.421,38
1,1,0.339,"SevenGo","Go","Go_SevenGo",-0.310322690992035,99,2.53019969820308,0.483,39
1,1,0,"SevenGo","NoGo","NoGo_SevenGo",-0.295889077457522,100,0,0.339,40
1,1,0.474,"OneGo","Go","Go_OneGo",-0.281455463923009,101,2.67577834167409,0,11
1,1,0,"OneGo","NoGo","NoGo_OneGo",-0.267021850388496,102,0,0.474,12
1,1,0.458,"SevenGo","Go","Go_SevenGo",-0.252588236853982,103,2.66086547800387,0,41
1,1,0.438,"SevenGo","Go","Go_SevenGo",-0.223721009784956,105,2.6414741105041,0.712,43
1,1,0.499,"SevenGo","Go","Go_SevenGo",-0.209287396250442,106,2.69810054562339,0.438,44
1,1,0.338,"SevenGo","Go","Go_SevenGo",-0.194853782715929,107,2.52891670027765,0.499,45
1,1,0.416,"SevenGo","Go","Go_SevenGo",-0.180420169181416,108,2.61909333062674,0.338,46
1,1,0.398,"SevenGo","Go","Go_SevenGo",-0.165986555646903,109,2.59988307207369,0.416,47
1,1,0,"SevenGo","NoGo","NoGo_SevenGo",-0.151552942112389,110,0,0.398,48
1,1,0.342,"FiveGo","Go","Go_FiveGo",-0.137119328577876,111,2.53402610605613,0,31
1,1,0.292,"FiveGo","Go","Go_FiveGo",-0.122685715043363,112,2.46538285144842,0.342,32
1,1,0.33,"FiveGo","Go","Go_FiveGo",-0.10825210150885,113,2.51851393987789,0.292,33
1,1,0.279,"FiveGo","Go","Go_FiveGo",-0.0938184879743363,114,2.4456042032736,0.33,34
1,1,0.293,"FiveGo","Go","Go_FiveGo",-0.079384874439823,115,2.46686762035411,0.279,35
1,0,0.339,"FiveGo","NoGo","NoGo_FiveGo",-0.0649512609053097,116,2.53019969820308,0.293,36
1,1,0.375,"ThreeGo","Go","Go_ThreeGo",-0.0505176473707964,117,2.57403126772772,0.339,21
1,1,0.348,"ThreeGo","Go","Go_ThreeGo",-0.0360840338362832,118,2.54157924394658,0.375,22
1,1,0.49,"ThreeGo","Go","Go_ThreeGo",-0.0216504203017699,119,2.69019608002851,0.348,23
1,1,0,"ThreeGo","NoGo","NoGo_ThreeGo",-0.00721680676725664,120,0,0.49,24
1,1,0.259,"OneGo","Go","Go_OneGo",0.00721680676725664,121,2.41329976408125,0,13
1,0,0.256,"OneGo","NoGo","NoGo_OneGo",0.0216504203017699,122,2.40823996531185,0.259,14
1,1,0.379,"ThreeGo","Go","Go_ThreeGo",0.0360840338362832,123,2.57863920996807,0.256,25
1,1,0.505,"ThreeGo","Go","Go_ThreeGo",0.0505176473707964,124,2.70329137811866,0.379,26
1,1,0.416,"ThreeGo","Go","Go_ThreeGo",0.0649512609053097,125,2.61909333062674,0.505,27
1,1,0,"ThreeGo","NoGo","NoGo_ThreeGo",0.079384874439823,126,0,0.416,28
1,1,0.496,"SevenGo","Go","Go_SevenGo",0.0938184879743363,127,2.6954816764902,0,49
1,1,0.334,"SevenGo","Go","Go_SevenGo",0.10825210150885,128,2.52374646681156,0.496,50
1,1,0.316,"SevenGo","Go","Go_SevenGo",0.122685715043363,129,2.4996870826184,0.334,51
1,1,0.337,"SevenGo","Go","Go_SevenGo",0.137119328577876,130,2.52762990087134,0.316,52
1,1,0.359,"SevenGo","Go","Go_SevenGo",0.151552942112389,131,2.55509444857832,0.337,53
1,1,0.317,"SevenGo","Go","Go_SevenGo",0.165986555646903,132,2.50105926221775,0.359,54
1,1,0.347,"SevenGo","Go","Go_SevenGo",0.180420169181416,133,2.54032947479087,0.317,55
1,1,0,"SevenGo","NoGo","NoGo_SevenGo",0.194853782715929,134,0,0.347,56
1,1,0.284,"FiveGo","Go","Go_FiveGo",0.209287396250442,135,2.45331834004704,0,37
1,1,0.346,"FiveGo","Go","Go_FiveGo",0.223721009784956,136,2.53907609879278,0.284,38
1,0,0,"FiveGo","Go","Go_FiveGo",0.238154623319469,137,0,0.346,39
1,1,0.397,"FiveGo","Go","Go_FiveGo",0.252588236853982,138,2.59879050676312,0,40
1,1,0.395,"FiveGo","Go","Go_FiveGo",0.267021850388496,139,2.59659709562646,0.397,41
1,1,0,"FiveGo","NoGo","NoGo_FiveGo",0.281455463923009,140,0,0.395,42
1,1,0.42,"OneGo","Go","Go_OneGo",0.295889077457522,141,2.6232492903979,0,15
1,0,0.393,"OneGo","NoGo","NoGo_OneGo",0.310322690992035,142,2.59439255037543,0.42,16
1,1,0.485,"FiveGo","Go","Go_FiveGo",0.324756304526549,143,2.68574173860226,0.393,43
1,1,0.443,"FiveGo","Go","Go_FiveGo",0.339189918061062,144,2.64640372622307,0.485,44
1,1,0.417,"FiveGo","Go","Go_FiveGo",0.353623531595575,145,2.62013605497376,0.443,45
1,1,0.358,"FiveGo","Go","Go_FiveGo",0.368057145130088,146,2.55388302664387,0.417,46
1,1,0.348,"FiveGo","Go","Go_FiveGo",0.382490758664602,147,2.54157924394658,0.358,47
1,1,0,"FiveGo","NoGo","NoGo_FiveGo",0.396924372199115,148,0,0.348,48
1,1,0.293,"SevenGo","Go","Go_SevenGo",0.411357985733628,149,2.46686762035411,0,57
1,1,0.386,"SevenGo","Go","Go_SevenGo",0.425791599268141,150,2.58658730467176,0.293,58
1,1,0.368,"SevenGo","Go","Go_SevenGo",0.440225212802655,151,2.56584781867352,0.386,59
1,1,0.374,"SevenGo","Go","Go_SevenGo",0.454658826337168,152,2.57287160220048,0.368,60
1,1,0.284,"SevenGo","Go","Go_SevenGo",0.469092439871681,153,2.45331834004704,0.374,61
1,1,0.377,"SevenGo","Go","Go_SevenGo",0.483526053406195,154,2.57634135020579,0.284,62
1,1,0.423,"SevenGo","Go","Go_SevenGo",0.497959666940708,155,2.62634036737504,0.377,63
1,1,0,"SevenGo","NoGo","NoGo_SevenGo",0.512393280475221,156,0,0.423,64
1,1,0.345,"ThreeGo","Go","Go_ThreeGo",0.526826894009734,157,2.53781909507327,0,29
1,1,0.318,"ThreeGo","Go","Go_ThreeGo",0.541260507544248,158,2.50242711998443,0.345,30
1,1,0.372,"ThreeGo","Go","Go_ThreeGo",0.555694121078761,159,2.5705429398819,0.318,31
1,1,0,"ThreeGo","NoGo","NoGo_ThreeGo",0.570127734613274,160,0,0.372,32
1,1,0.473,"ThreeGo","Go","Go_ThreeGo",0.584561348147787,161,2.67486114073781,0,33
1,1,0.366,"ThreeGo","Go","Go_ThreeGo",0.598994961682301,162,2.56348108539441,0.473,34
1,1,0.38,"ThreeGo","Go","Go_ThreeGo",0.613428575216814,163,2.57978359661681,0.366,35
1,0,0.298,"ThreeGo","NoGo","NoGo_ThreeGo",0.627862188751327,164,2.47421626407626,0.38,36
1,1,0.317,"OneGo","Go","Go_OneGo",0.64229580228584,165,2.50105926221775,0.298,17
1,1,0,"OneGo","NoGo","NoGo_OneGo",0.656729415820354,166,0,0.317,18
1,1,0.318,"SevenGo","Go","Go_SevenGo",0.671163029354867,167,2.50242711998443,0,65
1,1,0.54,"SevenGo","Go","Go_SevenGo",0.68559664288938,168,2.73239375982297,0.318,66
1,1,0.474,"SevenGo","Go","Go_SevenGo",0.700030256423894,169,2.67577834167409,0.54,67
1,1,0.359,"SevenGo","Go","Go_SevenGo",0.714463869958407,170,2.55509444857832,0.474,68
1,1,0.397,"SevenGo","Go","Go_SevenGo",0.72889748349292,171,2.59879050676312,0.359,69
1,1,0.555,"SevenGo","Go","Go_SevenGo",0.743331097027433,172,2.74429298312268,0.397,70
1,1,0.441,"SevenGo","Go","Go_SevenGo",0.757764710561947,173,2.64443858946784,0.555,71
1,1,0,"SevenGo","NoGo","NoGo_SevenGo",0.77219832409646,174,0,0.441,72
1,1,0.466,"FiveGo","Go","Go_FiveGo",0.786631937630973,175,2.66838591669,0,49
1,1,0.472,"FiveGo","Go","Go_FiveGo",0.801065551165487,176,2.67394199863409,0.466,50
1,1,0.47,"FiveGo","Go","Go_FiveGo",0.8154991647,177,2.67209785793572,0.472,51
1,1,0.332,"FiveGo","Go","Go_FiveGo",0.829932778234513,178,2.52113808370404,0.47,52
1,1,0.393,"FiveGo","Go","Go_FiveGo",0.844366391769026,179,2.59439255037543,0.332,53
1,1,0,"FiveGo","NoGo","NoGo_FiveGo",0.85880000530354,180,0,0.393,54
1,1,0.538,"SevenGo","Go","Go_SevenGo",0.873233618838053,181,2.73078227566639,0,73
1,1,0.327,"SevenGo","Go","Go_SevenGo",0.887667232372566,182,2.51454775266029,0.538,74
1,1,0.333,"SevenGo","Go","Go_SevenGo",0.902100845907079,183,2.52244423350632,0.327,75
1,1,0.387,"SevenGo","Go","Go_SevenGo",0.916534459441593,184,2.58771096501891,0.333,76
1,1,0.345,"SevenGo","Go","Go_SevenGo",0.930968072976106,185,2.53781909507327,0.387,77
1,1,0.375,"SevenGo","Go","Go_SevenGo",0.945401686510619,186,2.57403126772772,0.345,78
1,1,0.428,"SevenGo","Go","Go_SevenGo",0.959835300045133,187,2.63144376901317,0.375,79
1,1,0,"SevenGo","NoGo","NoGo_SevenGo",0.974268913579646,188,0,0.428,80
1,1,0.302,"OneGo","Go","Go_OneGo",0.988702527114159,189,2.48000694295715,0,19
1,0,0.292,"OneGo","NoGo","NoGo_OneGo",1.00313614064867,190,2.46538285144842,0.302,20
1,1,0.51,"ThreeGo","Go","Go_ThreeGo",1.01756975418319,191,2.70757017609794,0.292,37
1,1,0.316,"ThreeGo","Go","Go_ThreeGo",1.0320033677177,192,2.4996870826184,0.51,38
1,1,0.514,"ThreeGo","Go","Go_ThreeGo",1.04643698125221,193,2.71096311899528,0.316,39
1,1,0,"ThreeGo","NoGo","NoGo_ThreeGo",1.06087059478673,194,0,0.514,40
1,1,0.251,"FiveGo","Go","Go_FiveGo",1.07530420832124,195,2.39967372148104,0,55
1,1,0.321,"FiveGo","Go","Go_FiveGo",1.08973782185575,196,2.50650503240487,0.251,56
1,1,0.335,"FiveGo","Go","Go_FiveGo",1.10417143539027,197,2.52504480703685,0.321,57
1,1,0.429,"FiveGo","Go","Go_FiveGo",1.11860504892478,198,2.63245729218472,0.335,58
1,1,0.394,"FiveGo","Go","Go_FiveGo",1.13303866245929,199,2.59549622182557,0.429,59
1,1,0.371,"SevenGo","Go","Go_SevenGo",1.16190588952832,201,2.56937390961505,0.56,81
1,1,0.376,"SevenGo","Go","Go_SevenGo",1.17633950306283,202,2.57518784492766,0.371,82
1,1,0.518,"SevenGo","Go","Go_SevenGo",1.19077311659734,203,2.71432975974523,0.376,83
1,1,0.412,"SevenGo","Go","Go_SevenGo",1.20520673013186,204,2.61489721603313,0.518,84
1,1,0.45,"SevenGo","Go","Go_SevenGo",1.21964034366637,205,2.65321251377534,0.412,85
1,1,0.416,"SevenGo","Go","Go_SevenGo",1.23407395720088,206,2.61909333062674,0.45,86
1,1,0,"SevenGo","NoGo","NoGo_SevenGo",1.26294118426991,208,0,0.645,88
1,1,0.423,"OneGo","Go","Go_OneGo",1.27737479780442,209,2.62634036737504,0,21
1,1,0,"OneGo","NoGo","NoGo_OneGo",1.29180841133894,210,0,0.423,22
1,1,0.335,"FiveGo","Go","Go_FiveGo",1.30624202487345,211,2.52504480703685,0,61
1,1,0.301,"FiveGo","Go","Go_FiveGo",1.32067563840796,212,2.47856649559384,0.335,62
1,1,0.291,"FiveGo","Go","Go_FiveGo",1.33510925194248,213,2.46389298898591,0.301,63
1,1,0.369,"FiveGo","Go","Go_FiveGo",1.34954286547699,214,2.56702636615906,0.291,64
1,1,0.334,"FiveGo","Go","Go_FiveGo",1.3639764790115,215,2.52374646681156,0.369,65
1,0,0.292,"FiveGo","NoGo","NoGo_FiveGo",1.37841009254602,216,2.46538285144842,0.334,66
1,1,0.496,"ThreeGo","Go","Go_ThreeGo",1.39284370608053,217,2.6954816764902,0.292,41
1,1,0.454,"ThreeGo","Go","Go_ThreeGo",1.40727731961504,218,2.6570558528571,0.496,42
1,1,0.459,"ThreeGo","Go","Go_ThreeGo",1.42171093314956,219,2.66181268553726,0.454,43
1,1,0,"ThreeGo","NoGo","NoGo_ThreeGo",1.43614454668407,220,0,0.459,44
1,1,0.532,"ThreeGo","Go","Go_ThreeGo",1.45057816021858,221,2.72591163229505,0,45
1,1,0.402,"ThreeGo","Go","Go_ThreeGo",1.4650117737531,222,2.60422605308447,0.532,46
1,1,0.343,"ThreeGo","Go","Go_ThreeGo",1.47944538728761,223,2.53529412004277,0.402,47
1,0,0.309,"ThreeGo","NoGo","NoGo_ThreeGo",1.49387900082212,224,2.48995847942483,0.343,48
1,1,0.417,"OneGo","Go","Go_OneGo",1.50831261435664,225,2.62013605497376,0.309,23
1,1,0,"OneGo","NoGo","NoGo_OneGo",1.52274622789115,226,0,0.417,24
1,1,0.465,"FiveGo","Go","Go_FiveGo",1.53717984142566,227,2.66745295288995,0,67
1,1,0.351,"FiveGo","Go","Go_FiveGo",1.55161345496018,228,2.54530711646582,0.465,68
1,1,0.301,"FiveGo","Go","Go_FiveGo",1.56604706849469,229,2.47856649559384,0.351,69
1,1,0.411,"FiveGo","Go","Go_FiveGo",1.5804806820292,230,2.61384182187607,0.301,70
1,1,0.464,"FiveGo","Go","Go_FiveGo",1.59491429556372,231,2.66651798055488,0.411,71
1,1,0,"FiveGo","NoGo","NoGo_FiveGo",1.60934790909823,232,0,0.464,72
1,1,0.426,"SevenGo","Go","Go_SevenGo",1.62378152263274,233,2.62940959910272,0,89
1,1,0.44,"SevenGo","Go","Go_SevenGo",1.63821513616726,234,2.64345267648619,0.426,90
1,1,0.485,"SevenGo","Go","Go_SevenGo",1.65264874970177,235,2.68574173860226,0.44,91
1,1,0.419,"SevenGo","Go","Go_SevenGo",1.66708236323628,236,2.6222140229663,0.485,92
1,1,0.465,"SevenGo","Go","Go_SevenGo",1.6815159767708,237,2.66745295288995,0.419,93
1,1,0.526,"SevenGo","Go","Go_SevenGo",1.69594959030531,238,2.72098574415374,0.465,94
1,1,0.5,"SevenGo","Go","Go_SevenGo",1.71038320383982,239,2.69897000433602,0.526,95
1,1,0,"SevenGo","NoGo","NoGo_SevenGo",1.72481681737434,240,0,0.5,96
2,1,0.361,"SevenGo","Go","Go_SevenGo",-1.72481681737434,1,2.55750720190566,0.288767932489451,1
2,1,0.334,"SevenGo","Go","Go_SevenGo",-1.71038320383982,2,2.52374646681156,0.361,2
2,1,0.284,"SevenGo","Go","Go_SevenGo",-1.69594959030531,3,2.45331834004704,0.334,3
2,1,0.37,"SevenGo","Go","Go_SevenGo",-1.6815159767708,4,2.56820172406699,0.284,4
2,1,0.32,"SevenGo","Go","Go_SevenGo",-1.66708236323628,5,2.50514997831991,0.37,5
2,1,0.277,"SevenGo","Go","Go_SevenGo",-1.65264874970177,6,2.44247976906445,0.32,6
2,1,0.259,"SevenGo","Go","Go_SevenGo",-1.63821513616726,7,2.41329976408125,0.277,7
2,1,0,"SevenGo","NoGo","NoGo_SevenGo",-1.62378152263274,8,0,0.259,8
2,1,0.324,"ThreeGo","Go","Go_ThreeGo",-1.60934790909823,9,2.51054501020661,0,1
2,1,0.281,"ThreeGo","Go","Go_ThreeGo",-1.59491429556372,10,2.44870631990508,0.324,2
2,1,0.287,"ThreeGo","Go","Go_ThreeGo",-1.5804806820292,11,2.45788189673399,0.281,3
2,0,0.269,"ThreeGo","NoGo","NoGo_ThreeGo",-1.56604706849469,12,2.42975228000241,0.287,4
2,1,0.441,"FiveGo","Go","Go_FiveGo",-1.55161345496018,13,2.64443858946784,0.269,1
2,1,0.334,"FiveGo","Go","Go_FiveGo",-1.53717984142566,14,2.52374646681156,0.441,2
2,1,0.332,"FiveGo","Go","Go_FiveGo",-1.52274622789115,15,2.52113808370404,0.334,3
2,1,0.322,"FiveGo","Go","Go_FiveGo",-1.50831261435664,16,2.50785587169583,0.332,4
2,1,0.368,"FiveGo","Go","Go_FiveGo",-1.49387900082212,17,2.56584781867352,0.322,5
2,1,0,"FiveGo","NoGo","NoGo_FiveGo",-1.47944538728761,18,0,0.368,6
2,1,0.312,"OneGo","Go","Go_OneGo",-1.4650117737531,19,2.49415459401844,0,1
2,0,0.278,"OneGo","NoGo","NoGo_OneGo",-1.45057816021858,20,2.44404479591808,0.312,2
2,1,0.33,"FiveGo","Go","Go_FiveGo",-1.43614454668407,21,2.51851393987789,0.278,7
2,1,0.367,"FiveGo","Go","Go_FiveGo",-1.42171093314956,22,2.56466606425209,0.33,8
2,1,0.341,"FiveGo","Go","Go_FiveGo",-1.40727731961504,23,2.5327543789925,0.367,9
2,1,0.331,"FiveGo","Go","Go_FiveGo",-1.39284370608053,24,2.51982799377572,0.341,10
2,1,0.313,"FiveGo","Go","Go_FiveGo",-1.37841009254602,25,2.49554433754645,0.331,11
2,1,0,"FiveGo","NoGo","NoGo_FiveGo",-1.3639764790115,26,0,0.313,12
2,1,0.329,"ThreeGo","Go","Go_ThreeGo",-1.34954286547699,27,2.51719589794997,0,5
2,1,0.351,"ThreeGo","Go","Go_ThreeGo",-1.33510925194248,28,2.54530711646582,0.329,6
2,1,0.365,"ThreeGo","Go","Go_ThreeGo",-1.32067563840796,29,2.56229286445647,0.351,7
2,1,0,"ThreeGo","NoGo","NoGo_ThreeGo",-1.30624202487345,30,0,0.365,8
2,1,0.318,"SevenGo","Go","Go_SevenGo",-1.29180841133894,31,2.50242711998443,0,9
2,1,0.348,"SevenGo","Go","Go_SevenGo",-1.27737479780442,32,2.54157924394658,0.318,10
2,1,0.362,"SevenGo","Go","Go_SevenGo",-1.26294118426991,33,2.55870857053317,0.348,11
2,1,0.319,"SevenGo","Go","Go_SevenGo",-1.2485075707354,34,2.50379068305718,0.362,12
2,1,0.325,"SevenGo","Go","Go_SevenGo",-1.23407395720088,35,2.51188336097887,0.319,13
2,1,0.371,"SevenGo","Go","Go_SevenGo",-1.21964034366637,36,2.56937390961505,0.325,14
2,1,0.313,"SevenGo","Go","Go_SevenGo",-1.20520673013186,37,2.49554433754645,0.371,15
2,1,0,"SevenGo","NoGo","NoGo_SevenGo",-1.19077311659734,38,0,0.313,16
2,1,0.265,"OneGo","Go","Go_OneGo",-1.17633950306283,39,2.42324587393681,0,3
2,1,0,"OneGo","NoGo","NoGo_OneGo",-1.16190588952832,40,0,0.265,4
2,1,0.331,"SevenGo","Go","Go_SevenGo",-1.1474722759938,41,2.51982799377572,0,17
2,1,0.336,"SevenGo","Go","Go_SevenGo",-1.13303866245929,42,2.52633927738984,0.331,18
2,1,0.334,"SevenGo","Go","Go_SevenGo",-1.11860504892478,43,2.52374646681156,0.336,19
2,1,0.372,"SevenGo","Go","Go_SevenGo",-1.10417143539027,44,2.5705429398819,0.334,20
2,1,0.346,"SevenGo","Go","Go_SevenGo",-1.08973782185575,45,2.53907609879278,0.372,21
2,1,0.335,"SevenGo","Go","Go_SevenGo",-1.07530420832124,46,2.52504480703685,0.346,22
2,1,0.333,"SevenGo","Go","Go_SevenGo",-1.06087059478673,47,2.52244423350632,0.335,23
2,0,0.299,"SevenGo","NoGo","NoGo_SevenGo",-1.04643698125221,48,2.47567118832443,0.333,24
2,1,0.374,"OneGo","Go","Go_OneGo",-1.0320033677177,49,2.57287160220048,0.299,5
2,1,0,"OneGo","NoGo","NoGo_OneGo",-1.01756975418319,50,0,0.374,6
2,1,0.351,"ThreeGo","Go","Go_ThreeGo",-1.00313614064867,51,2.54530711646582,0,9
2,1,0.421,"ThreeGo","Go","Go_ThreeGo",-0.988702527114159,52,2.62428209583567,0.351,10
2,1,0.531,"ThreeGo","Go","Go_ThreeGo",-0.974268913579646,53,2.72509452108147,0.421,11
2,1,0,"ThreeGo","NoGo","NoGo_ThreeGo",-0.959835300045133,54,0,0.531,12
2,1,0.259,"FiveGo","Go","Go_FiveGo",-0.945401686510619,55,2.41329976408125,0,13
2,1,0.401,"FiveGo","Go","Go_FiveGo",-0.930968072976106,56,2.60314437262018,0.259,14
2,1,0.415,"FiveGo","Go","Go_FiveGo",-0.916534459441593,57,2.61804809671209,0.401,15
2,1,0.324,"FiveGo","Go","Go_FiveGo",-0.902100845907079,58,2.51054501020661,0.415,16
2,1,0.322,"FiveGo","Go","Go_FiveGo",-0.887667232372566,59,2.50785587169583,0.324,17
2,1,0,"FiveGo","NoGo","NoGo_FiveGo",-0.873233618838053,60,0,0.322,18
2,1,0.34,"SevenGo","Go","Go_SevenGo",-0.85880000530354,61,2.53147891704225,0,25
2,1,0.345,"SevenGo","Go","Go_SevenGo",-0.844366391769026,62,2.53781909507327,0.34,26
2,1,0.311,"SevenGo","Go","Go_SevenGo",-0.829932778234513,63,2.49276038902684,0.345,27
2,1,0.349,"SevenGo","Go","Go_SevenGo",-0.8154991647,64,2.54282542695918,0.311,28
2,1,0.307,"SevenGo","Go","Go_SevenGo",-0.801065551165487,65,2.48713837547719,0.349,29
2,1,0.368,"SevenGo","Go","Go_SevenGo",-0.786631937630973,66,2.56584781867352,0.307,30
2,1,0.326,"SevenGo","Go","Go_SevenGo",-0.77219832409646,67,2.51321760006794,0.368,31
2,1,0,"SevenGo","NoGo","NoGo_SevenGo",-0.757764710561947,68,0,0.326,32
2,1,0.327,"FiveGo","Go","Go_FiveGo",-0.743331097027433,69,2.51454775266029,0,19
2,1,0.341,"FiveGo","Go","Go_FiveGo",-0.72889748349292,70,2.5327543789925,0.327,20
2,1,0.347,"FiveGo","Go","Go_FiveGo",-0.714463869958407,71,2.54032947479087,0.341,21
2,1,0.385,"FiveGo","Go","Go_FiveGo",-0.700030256423894,72,2.5854607295085,0.347,22
2,1,0.375,"FiveGo","Go","Go_FiveGo",-0.68559664288938,73,2.57403126772772,0.385,23
2,1,0,"FiveGo","NoGo","NoGo_FiveGo",-0.671163029354867,74,0,0.375,24
2,1,0.319,"OneGo","Go","Go_OneGo",-0.656729415820354,75,2.50379068305718,0,7
2,1,0,"OneGo","NoGo","NoGo_OneGo",-0.64229580228584,76,0,0.319,8
2,1,0.288,"ThreeGo","Go","Go_ThreeGo",-0.627862188751327,77,2.45939248775923,0,13
2,1,0.333,"ThreeGo","Go","Go_ThreeGo",-0.613428575216814,78,2.52244423350632,0.288,14
2,1,0.34,"ThreeGo","Go","Go_ThreeGo",-0.598994961682301,79,2.53147891704225,0.333,15
2,1,0,"ThreeGo","NoGo","NoGo_ThreeGo",-0.584561348147787,80,0,0.34,16
2,1,0.562,"ThreeGo","Go","Go_ThreeGo",-0.570127734613274,81,2.74973631556906,0,17
2,1,0.336,"ThreeGo","Go","Go_ThreeGo",-0.555694121078761,82,2.52633927738984,0.562,18
2,1,0.334,"ThreeGo","Go","Go_ThreeGo",-0.541260507544248,83,2.52374646681156,0.336,19
2,1,0,"ThreeGo","NoGo","NoGo_ThreeGo",-0.526826894009734,84,0,0.334,20
2,1,0.311,"FiveGo","Go","Go_FiveGo",-0.512393280475221,85,2.49276038902684,0,25
2,1,0.333,"FiveGo","Go","Go_FiveGo",-0.497959666940708,86,2.52244423350632,0.311,26
2,1,0.419,"FiveGo","Go","Go_FiveGo",-0.483526053406195,87,2.6222140229663,0.333,27
2,1,0.392,"FiveGo","Go","Go_FiveGo",-0.469092439871681,88,2.59328606702046,0.419,28
2,1,0.414,"FiveGo","Go","Go_FiveGo",-0.454658826337168,89,2.6170003411209,0.392,29
2,1,0,"FiveGo","NoGo","NoGo_FiveGo",-0.440225212802655,90,0,0.414,30
2,1,0.319,"SevenGo","Go","Go_SevenGo",-0.425791599268141,91,2.50379068305718,0,33
2,1,0.308,"SevenGo","Go","Go_SevenGo",-0.411357985733628,92,2.48855071650044,0.319,34
2,1,0.282,"SevenGo","Go","Go_SevenGo",-0.396924372199115,93,2.45024910831936,0.308,35
2,1,0.384,"SevenGo","Go","Go_SevenGo",-0.382490758664602,94,2.58433122436753,0.282,36
2,1,0.414,"SevenGo","Go","Go_SevenGo",-0.368057145130088,95,2.6170003411209,0.384,37
2,1,0.275,"SevenGo","Go","Go_SevenGo",-0.353623531595575,96,2.43933269383026,0.414,38
2,1,0.281,"SevenGo","Go","Go_SevenGo",-0.339189918061062,97,2.44870631990508,0.275,39
2,0,0.288,"SevenGo","NoGo","NoGo_SevenGo",-0.324756304526549,98,2.45939248775923,0.281,40
2,1,0.315,"OneGo","Go","Go_OneGo",-0.310322690992035,99,2.4983105537896,0.288,9
2,1,0.491,"OneGo","Go","Go_OneGo",-0.281455463923009,101,2.69108149212297,0.032,11
2,1,0,"OneGo","NoGo","NoGo_OneGo",-0.267021850388496,102,0,0.491,12
2,1,0.349,"ThreeGo","Go","Go_ThreeGo",-0.252588236853982,103,2.54282542695918,0,21
2,1,0.482,"ThreeGo","Go","Go_ThreeGo",-0.238154623319469,104,2.68304703823885,0.349,22
2,1,0.312,"ThreeGo","Go","Go_ThreeGo",-0.223721009784956,105,2.49415459401844,0.482,23
2,1,0,"ThreeGo","NoGo","NoGo_ThreeGo",-0.209287396250442,106,0,0.312,24
2,1,0.289,"SevenGo","Go","Go_SevenGo",-0.194853782715929,107,2.46089784275655,0,41
2,1,0.438,"SevenGo","Go","Go_SevenGo",-0.180420169181416,108,2.6414741105041,0.289,42
2,1,0.348,"SevenGo","Go","Go_SevenGo",-0.165986555646903,109,2.54157924394658,0.438,43
2,1,0.354,"SevenGo","Go","Go_SevenGo",-0.151552942112389,110,2.54900326202579,0.348,44
2,1,0.344,"SevenGo","Go","Go_SevenGo",-0.137119328577876,111,2.53655844257153,0.354,45
2,1,0.397,"SevenGo","Go","Go_SevenGo",-0.122685715043363,112,2.59879050676312,0.344,46
2,1,0.331,"SevenGo","Go","Go_SevenGo",-0.10825210150885,113,2.51982799377572,0.397,47
2,1,0,"SevenGo","NoGo","NoGo_SevenGo",-0.0938184879743363,114,0,0.331,48
2,1,0.357,"FiveGo","Go","Go_FiveGo",-0.079384874439823,115,2.55266821611219,0,31
2,1,0.306,"FiveGo","Go","Go_FiveGo",-0.0649512609053097,116,2.48572142648158,0.357,32
2,1,0.304,"FiveGo","Go","Go_FiveGo",-0.0505176473707964,117,2.48287358360875,0.306,33
2,1,0.286,"FiveGo","Go","Go_FiveGo",-0.0360840338362832,118,2.45636603312904,0.304,34
2,1,0.252,"FiveGo","Go","Go_FiveGo",-0.0216504203017699,119,2.40140054078154,0.286,35
2,1,0,"FiveGo","NoGo","NoGo_FiveGo",-0.00721680676725664,120,0,0.252,36
2,1,0.26,"OneGo","Go","Go_OneGo",0.00721680676725664,121,2.41497334797082,0,13
2,0,0.275,"OneGo","NoGo","NoGo_OneGo",0.0216504203017699,122,2.43933269383026,0.26,14
2,1,0.326,"ThreeGo","Go","Go_ThreeGo",0.0360840338362832,123,2.51321760006794,0.275,25
2,1,0.316,"ThreeGo","Go","Go_ThreeGo",0.0505176473707964,124,2.4996870826184,0.326,26
2,1,0.345,"ThreeGo","Go","Go_ThreeGo",0.0649512609053097,125,2.53781909507327,0.316,27
2,1,0,"ThreeGo","NoGo","NoGo_ThreeGo",0.079384874439823,126,0,0.345,28
2,1,0.29,"SevenGo","Go","Go_SevenGo",0.0938184879743363,127,2.46239799789896,0,49
2,1,0.247,"SevenGo","Go","Go_SevenGo",0.10825210150885,128,2.39269695325967,0.29,50
2,1,0.317,"SevenGo","Go","Go_SevenGo",0.122685715043363,129,2.50105926221775,0.247,51
2,1,0.299,"SevenGo","Go","Go_SevenGo",0.137119328577876,130,2.47567118832443,0.317,52
2,1,0.353,"SevenGo","Go","Go_SevenGo",0.151552942112389,131,2.54777470538782,0.299,53
2,1,0.28,"SevenGo","Go","Go_SevenGo",0.165986555646903,132,2.44715803134222,0.353,54
2,1,0.325,"SevenGo","Go","Go_SevenGo",0.180420169181416,133,2.51188336097887,0.28,55
2,1,0,"SevenGo","NoGo","NoGo_SevenGo",0.194853782715929,134,0,0.325,56
2,1,0.246,"FiveGo","Go","Go_FiveGo",0.209287396250442,135,2.39093510710338,0,37
2,1,0.228,"FiveGo","Go","Go_FiveGo",0.223721009784956,136,2.35793484700045,0.246,38
2,1,0.337,"FiveGo","Go","Go_FiveGo",0.238154623319469,137,2.52762990087134,0.228,39
2,1,0.303,"FiveGo","Go","Go_FiveGo",0.252588236853982,138,2.4814426285023,0.337,40
2,1,0.325,"FiveGo","Go","Go_FiveGo",0.267021850388496,139,2.51188336097887,0.303,41
2,1,0,"FiveGo","NoGo","NoGo_FiveGo",0.281455463923009,140,0,0.325,42
2,1,0.31,"OneGo","Go","Go_OneGo",0.295889077457522,141,2.49136169383427,0,15
2,1,0,"OneGo","NoGo","NoGo_OneGo",0.310322690992035,142,0,0.31,16
2,1,0.447,"SevenGo","Go","Go_SevenGo",0.324756304526549,143,2.65030752313194,0,57
2,1,0.309,"SevenGo","Go","Go_SevenGo",0.339189918061062,144,2.48995847942483,0.447,58
2,1,0.33,"SevenGo","Go","Go_SevenGo",0.353623531595575,145,2.51851393987789,0.309,59
2,1,0.32,"SevenGo","Go","Go_SevenGo",0.368057145130088,146,2.50514997831991,0.33,60
2,1,0.382,"SevenGo","Go","Go_SevenGo",0.382490758664602,147,2.58206336291171,0.32,61
2,1,0.315,"SevenGo","Go","Go_SevenGo",0.396924372199115,148,2.4983105537896,0.382,62
2,1,0.353,"SevenGo","Go","Go_SevenGo",0.411357985733628,149,2.54777470538782,0.315,63
2,1,0,"SevenGo","NoGo","NoGo_SevenGo",0.425791599268141,150,0,0.353,64
2,1,0.299,"ThreeGo","Go","Go_ThreeGo",0.440225212802655,151,2.47567118832443,0,29
2,1,0.313,"ThreeGo","Go","Go_ThreeGo",0.454658826337168,152,2.49554433754645,0.299,30
2,1,0.39,"ThreeGo","Go","Go_ThreeGo",0.469092439871681,153,2.5910646070265,0.313,31
2,0,0.292,"ThreeGo","NoGo","NoGo_ThreeGo",0.483526053406195,154,2.46538285144842,0.39,32
2,1,0.247,"FiveGo","Go","Go_FiveGo",0.497959666940708,155,2.39269695325967,0.292,43
2,1,0.332,"FiveGo","Go","Go_FiveGo",0.512393280475221,156,2.52113808370404,0.247,44
2,1,0.322,"FiveGo","Go","Go_FiveGo",0.526826894009734,157,2.50785587169583,0.332,45
2,1,0.304,"FiveGo","Go","Go_FiveGo",0.541260507544248,158,2.48287358360875,0.322,46
2,1,0.278,"FiveGo","Go","Go_FiveGo",0.555694121078761,159,2.44404479591808,0.304,47
2,0,0.316,"FiveGo","NoGo","NoGo_FiveGo",0.570127734613274,160,2.4996870826184,0.278,48
2,1,0.408,"OneGo","Go","Go_OneGo",0.584561348147787,161,2.61066016308988,0.316,17
2,1,0,"OneGo","NoGo","NoGo_OneGo",0.598994961682301,162,0,0.408,18
2,1,0.352,"ThreeGo","Go","Go_ThreeGo",0.613428575216814,163,2.54654266347813,0,33
2,1,0.334,"ThreeGo","Go","Go_ThreeGo",0.627862188751327,164,2.52374646681156,0.352,34
2,1,0.324,"ThreeGo","Go","Go_ThreeGo",0.64229580228584,165,2.51054501020661,0.334,35
2,1,0,"ThreeGo","NoGo","NoGo_ThreeGo",0.656729415820354,166,0,0.324,36
2,1,0.381,"FiveGo","Go","Go_FiveGo",0.671163029354867,167,2.58092497567562,0,49
2,1,0.315,"FiveGo","Go","Go_FiveGo",0.68559664288938,168,2.4983105537896,0.381,50
2,1,0.305,"FiveGo","Go","Go_FiveGo",0.700030256423894,169,2.48429983934679,0.315,51
2,1,0.326,"FiveGo","Go","Go_FiveGo",0.714463869958407,170,2.51321760006794,0.305,52
2,1,0.324,"FiveGo","Go","Go_FiveGo",0.72889748349292,171,2.51054501020661,0.326,53
2,0,0.322,"FiveGo","NoGo","NoGo_FiveGo",0.743331097027433,172,2.50785587169583,0.324,54
2,1,0.309,"SevenGo","Go","Go_SevenGo",0.757764710561947,173,2.48995847942483,0.322,65
2,1,0.378,"SevenGo","Go","Go_SevenGo",0.77219832409646,174,2.57749179983723,0.309,66
2,1,0.344,"SevenGo","Go","Go_SevenGo",0.786631937630973,175,2.53655844257153,0.378,67
2,1,0.342,"SevenGo","Go","Go_SevenGo",0.801065551165487,176,2.53402610605613,0.344,68
2,1,0.324,"SevenGo","Go","Go_SevenGo",0.8154991647,177,2.51054501020661,0.342,69
2,1,0.377,"SevenGo","Go","Go_SevenGo",0.829932778234513,178,2.57634135020579,0.324,70
2,1,0.359,"SevenGo","Go","Go_SevenGo",0.844366391769026,179,2.55509444857832,0.377,71
2,1,0,"SevenGo","NoGo","NoGo_SevenGo",0.85880000530354,180,0,0.359,72
2,1,0.281,"FiveGo","Go","Go_FiveGo",0.873233618838053,181,2.44870631990508,0,55
2,1,0.375,"FiveGo","Go","Go_FiveGo",0.887667232372566,182,2.57403126772772,0.281,56
2,1,0.556,"FiveGo","Go","Go_FiveGo",0.902100845907079,183,2.74507479158206,0.375,57
2,1,0.362,"FiveGo","Go","Go_FiveGo",0.916534459441593,184,2.55870857053317,0.556,58
2,1,0.288,"FiveGo","Go","Go_FiveGo",0.930968072976106,185,2.45939248775923,0.362,59
2,0,0.293,"FiveGo","NoGo","NoGo_FiveGo",0.945401686510619,186,2.46686762035411,0.288,60
2,1,0.24,"ThreeGo","Go","Go_ThreeGo",0.959835300045133,187,2.38021124171161,0.293,37
2,1,0.358,"ThreeGo","Go","Go_ThreeGo",0.974268913579646,188,2.55388302664387,0.24,38
2,1,0.38,"ThreeGo","Go","Go_ThreeGo",0.988702527114159,189,2.57978359661681,0.358,39
2,1,0,"ThreeGo","NoGo","NoGo_ThreeGo",1.00313614064867,190,0,0.38,40
2,1,0.429,"SevenGo","Go","Go_SevenGo",1.01756975418319,191,2.63245729218472,0,73
2,1,0.347,"SevenGo","Go","Go_SevenGo",1.0320033677177,192,2.54032947479087,0.429,74
2,1,0.345,"SevenGo","Go","Go_SevenGo",1.04643698125221,193,2.53781909507327,0.347,75
2,1,0.446,"SevenGo","Go","Go_SevenGo",1.06087059478673,194,2.64933485871214,0.345,76
2,1,0.46,"SevenGo","Go","Go_SevenGo",1.07530420832124,195,2.66275783168157,0.446,77
2,1,0.466,"SevenGo","Go","Go_SevenGo",1.08973782185575,196,2.66838591669,0.46,78
2,1,0.512,"SevenGo","Go","Go_SevenGo",1.10417143539027,197,2.70926996097583,0.466,79
2,1,0,"SevenGo","NoGo","NoGo_SevenGo",1.11860504892478,198,0,0.512,80
2,1,0.368,"OneGo","Go","Go_OneGo",1.13303866245929,199,2.56584781867352,0,19
2,1,0,"OneGo","NoGo","NoGo_OneGo",1.1474722759938,200,0,0.368,20
2,1,0.258,"FiveGo","Go","Go_FiveGo",1.16190588952832,201,2.41161970596323,0,61
2,1,0.424,"FiveGo","Go","Go_FiveGo",1.17633950306283,202,2.62736585659273,0.258,62
2,1,0.421,"FiveGo","Go","Go_FiveGo",1.19077311659734,203,2.62428209583567,0.424,63
2,1,0.427,"FiveGo","Go","Go_FiveGo",1.20520673013186,204,2.63042787502502,0.421,64
2,1,0.529,"FiveGo","Go","Go_FiveGo",1.21964034366637,205,2.72345567203519,0.427,65
2,1,0,"FiveGo","NoGo","NoGo_FiveGo",1.23407395720088,206,0,0.529,66
2,1,0.297,"ThreeGo","Go","Go_ThreeGo",1.2485075707354,207,2.47275644931721,0,41
2,1,0.351,"ThreeGo","Go","Go_ThreeGo",1.26294118426991,208,2.54530711646582,0.297,42
2,1,0.446,"ThreeGo","Go","Go_ThreeGo",1.27737479780442,209,2.64933485871214,0.351,43
2,1,0,"ThreeGo","NoGo","NoGo_ThreeGo",1.29180841133894,210,0,0.446,44
2,1,0.342,"OneGo","Go","Go_OneGo",1.30624202487345,211,2.53402610605613,0,21
2,1,0,"OneGo","NoGo","NoGo_OneGo",1.32067563840796,212,0,0.342,22
2,1,0.375,"SevenGo","Go","Go_SevenGo",1.33510925194248,213,2.57403126772772,0,81
2,1,0.445,"SevenGo","Go","Go_SevenGo",1.34954286547699,214,2.64836001098093,0.375,82
2,1,0.562,"SevenGo","Go","Go_SevenGo",1.3639764790115,215,2.74973631556906,0.445,83
2,1,0.321,"SevenGo","Go","Go_SevenGo",1.37841009254602,216,2.50650503240487,0.562,84
2,1,0.279,"SevenGo","Go","Go_SevenGo",1.39284370608053,217,2.4456042032736,0.321,85
2,1,0.268,"SevenGo","Go","Go_SevenGo",1.40727731961504,218,2.42813479402879,0.279,86
2,1,0.418,"SevenGo","Go","Go_SevenGo",1.42171093314956,219,2.62117628177504,0.268,87
2,1,0,"SevenGo","NoGo","NoGo_SevenGo",1.43614454668407,220,0,0.418,88
2,1,0.267,"ThreeGo","Go","Go_ThreeGo",1.45057816021858,221,2.42651126136458,0,45
2,1,0.281,"ThreeGo","Go","Go_ThreeGo",1.4650117737531,222,2.44870631990508,0.267,46
2,1,0.358,"ThreeGo","Go","Go_ThreeGo",1.47944538728761,223,2.55388302664387,0.281,47
2,1,0,"ThreeGo","NoGo","NoGo_ThreeGo",1.49387900082212,224,0,0.358,48
2,1,0.28,"FiveGo","Go","Go_FiveGo",1.50831261435664,225,2.44715803134222,0,67
2,1,0.334,"FiveGo","Go","Go_FiveGo",1.52274622789115,226,2.52374646681156,0.28,68
2,1,0.371,"FiveGo","Go","Go_FiveGo",1.53717984142566,227,2.56937390961505,0.334,69
2,1,0.321,"FiveGo","Go","Go_FiveGo",1.55161345496018,228,2.50650503240487,0.371,70
2,1,0.439,"FiveGo","Go","Go_FiveGo",1.56604706849469,229,2.64246452024212,0.321,71
2,1,0,"FiveGo","NoGo","NoGo_FiveGo",1.5804806820292,230,0,0.439,72
2,1,0.327,"SevenGo","Go","Go_SevenGo",1.59491429556372,231,2.51454775266029,0,89
2,1,0.341,"SevenGo","Go","Go_SevenGo",1.60934790909823,232,2.5327543789925,0.327,90
2,1,0.307,"SevenGo","Go","Go_SevenGo",1.62378152263274,233,2.48713837547719,0.341,91
2,1,0.281,"SevenGo","Go","Go_SevenGo",1.63821513616726,234,2.44870631990508,0.307,92
2,1,0.262,"SevenGo","Go","Go_SevenGo",1.65264874970177,235,2.41830129131975,0.281,93
2,1,0.244,"SevenGo","Go","Go_SevenGo",1.66708236323628,236,2.38738982633873,0.262,94
2,1,0.282,"SevenGo","Go","Go_SevenGo",1.6815159767708,237,2.45024910831936,0.244,95
2,1,0.267,"OneGo","Go","Go_OneGo",1.71038320383982,239,2.42651126136458,0.424,23
2,0,0.281,"OneGo","NoGo","NoGo_OneGo",1.72481681737434,240,2.44870631990508,0.267,24
3,1,0.376,"FiveGo","Go","Go_FiveGo",-1.72481681737434,1,2.57518784492766,0.286731914893617,1
3,1,0.342,"FiveGo","Go","Go_FiveGo",-1.71038320383982,2,2.53402610605613,0.376,2
3,1,0.308,"FiveGo","Go","Go_FiveGo",-1.69594959030531,3,2.48855071650044,0.342,3
3,1,0.281,"FiveGo","Go","Go_FiveGo",-1.6815159767708,4,2.44870631990508,0.308,4
3,1,0.351,"FiveGo","Go","Go_FiveGo",-1.66708236323628,5,2.54530711646582,0.281,5
3,1,0,"FiveGo","NoGo","NoGo_FiveGo",-1.65264874970177,6,0,0.351,6
3,1,0.296,"OneGo","Go","Go_OneGo",-1.63821513616726,7,2.47129171105894,0,1
3,1,0,"OneGo","NoGo","NoGo_OneGo",-1.62378152263274,8,0,0.296,2
3,1,0.489,"ThreeGo","Go","Go_ThreeGo",-1.60934790909823,9,2.68930885912362,0,1
3,1,0.327,"ThreeGo","Go","Go_ThreeGo",-1.59491429556372,10,2.51454775266029,0.489,2
3,1,0.309,"ThreeGo","Go","Go_ThreeGo",-1.5804806820292,11,2.48995847942483,0.327,3
3,1,0,"ThreeGo","NoGo","NoGo_ThreeGo",-1.56604706849469,12,0,0.309,4
3,1,0.293,"SevenGo","Go","Go_SevenGo",-1.55161345496018,13,2.46686762035411,0,1
3,1,0.363,"SevenGo","Go","Go_SevenGo",-1.53717984142566,14,2.55990662503611,0.293,2
3,1,0.361,"SevenGo","Go","Go_SevenGo",-1.52274622789115,15,2.55750720190566,0.363,3
3,1,0.326,"SevenGo","Go","Go_SevenGo",-1.50831261435664,16,2.51321760006794,0.361,4
3,1,0.316,"SevenGo","Go","Go_SevenGo",-1.49387900082212,17,2.4996870826184,0.326,5
3,1,0.314,"SevenGo","Go","Go_SevenGo",-1.47944538728761,18,2.49692964807321,0.316,6
3,1,0.336,"SevenGo","Go","Go_SevenGo",-1.4650117737531,19,2.52633927738984,0.314,7
3,1,0,"SevenGo","NoGo","NoGo_SevenGo",-1.45057816021858,20,0,0.336,8
3,1,0.377,"OneGo","Go","Go_OneGo",-1.43614454668407,21,2.57634135020579,0,3
3,0,0.327,"OneGo","NoGo","NoGo_OneGo",-1.42171093314956,22,2.51454775266029,0.377,4
3,1,0.49,"SevenGo","Go","Go_SevenGo",-1.40727731961504,23,2.69019608002851,0.327,9
3,1,0.335,"SevenGo","Go","Go_SevenGo",-1.39284370608053,24,2.52504480703685,0.49,10
3,1,0.349,"SevenGo","Go","Go_SevenGo",-1.37841009254602,25,2.54282542695918,0.335,11
3,1,0.339,"SevenGo","Go","Go_SevenGo",-1.3639764790115,26,2.53019969820308,0.349,12
3,1,0.465,"SevenGo","Go","Go_SevenGo",-1.34954286547699,27,2.66745295288995,0.339,13
3,1,0.343,"SevenGo","Go","Go_SevenGo",-1.33510925194248,28,2.53529412004277,0.465,14
3,1,0.356,"SevenGo","Go","Go_SevenGo",-1.32067563840796,29,2.55144999797288,0.343,15
3,1,0,"SevenGo","NoGo","NoGo_SevenGo",-1.30624202487345,30,0,0.356,16
3,1,0.366,"FiveGo","Go","Go_FiveGo",-1.29180841133894,31,2.56348108539441,0,7
3,1,0.323,"FiveGo","Go","Go_FiveGo",-1.27737479780442,32,2.5092025223311,0.366,8
3,1,0.329,"FiveGo","Go","Go_FiveGo",-1.26294118426991,33,2.51719589794997,0.323,9
3,1,0.319,"FiveGo","Go","Go_FiveGo",-1.2485075707354,34,2.50379068305718,0.329,10
3,1,0.341,"FiveGo","Go","Go_FiveGo",-1.23407395720088,35,2.5327543789925,0.319,11
3,1,0,"FiveGo","NoGo","NoGo_FiveGo",-1.21964034366637,36,0,0.341,12
3,1,0.293,"ThreeGo","Go","Go_ThreeGo",-1.20520673013186,37,2.46686762035411,0,5
3,1,0.339,"ThreeGo","Go","Go_ThreeGo",-1.19077311659734,38,2.53019969820308,0.293,6
3,1,0.329,"ThreeGo","Go","Go_ThreeGo",-1.17633950306283,39,2.51719589794997,0.339,7
3,1,0,"ThreeGo","NoGo","NoGo_ThreeGo",-1.16190588952832,40,0,0.329,8
3,1,0.426,"SevenGo","Go","Go_SevenGo",-1.1474722759938,41,2.62940959910272,0,17
3,1,0.296,"SevenGo","Go","Go_SevenGo",-1.13303866245929,42,2.47129171105894,0.426,18
3,1,0.358,"SevenGo","Go","Go_SevenGo",-1.11860504892478,43,2.55388302664387,0.296,19
3,1,0.348,"SevenGo","Go","Go_SevenGo",-1.10417143539027,44,2.54157924394658,0.358,20
3,1,0.449,"SevenGo","Go","Go_SevenGo",-1.08973782185575,45,2.65224634100332,0.348,21
3,1,0.311,"SevenGo","Go","Go_SevenGo",-1.07530420832124,46,2.49276038902684,0.449,22
3,1,0.365,"SevenGo","Go","Go_SevenGo",-1.06087059478673,47,2.56229286445647,0.311,23
3,0,0.339,"SevenGo","NoGo","NoGo_SevenGo",-1.04643698125221,48,2.53019969820308,0.365,24
3,1,0.31,"FiveGo","Go","Go_FiveGo",-1.0320033677177,49,2.49136169383427,0.339,13
3,1,0.3,"FiveGo","Go","Go_FiveGo",-1.01756975418319,50,2.47712125471966,0.31,14
3,1,0.322,"FiveGo","Go","Go_FiveGo",-1.00313614064867,51,2.50785587169583,0.3,15
3,1,0.344,"FiveGo","Go","Go_FiveGo",-0.988702527114159,52,2.53655844257153,0.322,16
3,1,0.333,"FiveGo","Go","Go_FiveGo",-0.974268913579646,53,2.52244423350632,0.344,17
3,1,0,"FiveGo","NoGo","NoGo_FiveGo",-0.959835300045133,54,0,0.333,18
3,1,0.286,"OneGo","Go","Go_OneGo",-0.945401686510619,55,2.45636603312904,0,5
3,0,0.276,"OneGo","NoGo","NoGo_OneGo",-0.930968072976106,56,2.44090908206522,0.286,6
3,1,0.326,"ThreeGo","Go","Go_ThreeGo",-0.916534459441593,57,2.51321760006794,0.276,9
3,1,0.356,"ThreeGo","Go","Go_ThreeGo",-0.902100845907079,58,2.55144999797288,0.326,10
3,1,0.339,"ThreeGo","Go","Go_ThreeGo",-0.887667232372566,59,2.53019969820308,0.356,11
3,1,0,"ThreeGo","NoGo","NoGo_ThreeGo",-0.873233618838053,60,0,0.339,12
3,1,0.267,"ThreeGo","Go","Go_ThreeGo",-0.85880000530354,61,2.42651126136458,0,13
3,1,0.369,"ThreeGo","Go","Go_ThreeGo",-0.844366391769026,62,2.56702636615906,0.267,14
3,1,0.319,"ThreeGo","Go","Go_ThreeGo",-0.829932778234513,63,2.50379068305718,0.369,15
3,1,0,"ThreeGo","NoGo","NoGo_ThreeGo",-0.8154991647,64,0,0.319,16
3,1,0.375,"OneGo","Go","Go_OneGo",-0.801065551165487,65,2.57403126772772,0,7
3,1,0,"OneGo","NoGo","NoGo_OneGo",-0.786631937630973,66,0,0.375,8
3,1,0.305,"SevenGo","Go","Go_SevenGo",-0.77219832409646,67,2.48429983934679,0,25
3,1,0.455,"SevenGo","Go","Go_SevenGo",-0.757764710561947,68,2.65801139665711,0.305,26
3,1,0.508,"SevenGo","Go","Go_SevenGo",-0.743331097027433,69,2.70586371228392,0.455,27
3,1,0.346,"SevenGo","Go","Go_SevenGo",-0.72889748349292,70,2.53907609879278,0.508,28
3,1,0.312,"SevenGo","Go","Go_SevenGo",-0.714463869958407,71,2.49415459401844,0.346,29
3,1,0.326,"SevenGo","Go","Go_SevenGo",-0.700030256423894,72,2.51321760006794,0.312,30
3,1,0.307,"SevenGo","Go","Go_SevenGo",-0.68559664288938,73,2.48713837547719,0.326,31
3,1,0,"SevenGo","NoGo","NoGo_SevenGo",-0.671163029354867,74,0,0.307,32
3,1,0.26,"FiveGo","Go","Go_FiveGo",-0.656729415820354,75,2.41497334797082,0,19
3,1,0.299,"FiveGo","Go","Go_FiveGo",-0.64229580228584,76,2.47567118832443,0.26,20
3,1,0.352,"FiveGo","Go","Go_FiveGo",-0.627862188751327,77,2.54654266347813,0.299,21
3,1,0.398,"FiveGo","Go","Go_FiveGo",-0.613428575216814,78,2.59988307207369,0.352,22
3,1,0.364,"FiveGo","Go","Go_FiveGo",-0.598994961682301,79,2.56110138364906,0.398,23
3,0,0.362,"FiveGo","NoGo","NoGo_FiveGo",-0.584561348147787,80,2.55870857053317,0.364,24
3,1,0.378,"ThreeGo","Go","Go_ThreeGo",-0.570127734613274,81,2.57749179983723,0.362,17
3,1,0.343,"ThreeGo","Go","Go_ThreeGo",-0.555694121078761,82,2.53529412004277,0.378,18
3,1,0.35,"ThreeGo","Go","Go_ThreeGo",-0.541260507544248,83,2.54406804435028,0.343,19
3,0,0.284,"ThreeGo","NoGo","NoGo_ThreeGo",-0.526826894009734,84,2.45331834004704,0.35,20
3,1,0.295,"FiveGo","Go","Go_FiveGo",-0.512393280475221,85,2.46982201597816,0.284,25
3,1,0.284,"FiveGo","Go","Go_FiveGo",-0.497959666940708,86,2.45331834004704,0.295,26
3,1,0.362,"FiveGo","Go","Go_FiveGo",-0.483526053406195,87,2.55870857053317,0.284,27
3,1,0.328,"FiveGo","Go","Go_FiveGo",-0.469092439871681,88,2.51587384371168,0.362,28
3,1,0.326,"FiveGo","Go","Go_FiveGo",-0.454658826337168,89,2.51321760006794,0.328,29
3,1,0,"FiveGo","NoGo","NoGo_FiveGo",-0.440225212802655,90,0,0.326,30
3,1,0.271,"OneGo","Go","Go_OneGo",-0.425791599268141,91,2.43296929087441,0,9
3,1,0,"OneGo","NoGo","NoGo_OneGo",-0.411357985733628,92,0,0.271,10
3,1,0.336,"SevenGo","Go","Go_SevenGo",-0.396924372199115,93,2.52633927738984,0,33
3,1,0.294,"SevenGo","Go","Go_SevenGo",-0.382490758664602,94,2.46834733041216,0.336,34
3,1,0.379,"SevenGo","Go","Go_SevenGo",-0.368057145130088,95,2.57863920996807,0.294,35
3,1,0.281,"SevenGo","Go","Go_SevenGo",-0.353623531595575,96,2.44870631990508,0.379,36
3,1,0.263,"SevenGo","Go","Go_SevenGo",-0.339189918061062,97,2.41995574848976,0.281,37
3,1,0.332,"SevenGo","Go","Go_SevenGo",-0.324756304526549,98,2.52113808370404,0.263,38
3,1,0.426,"SevenGo","Go","Go_SevenGo",-0.310322690992035,99,2.62940959910272,0.332,39
3,0,0.272,"SevenGo","NoGo","NoGo_SevenGo",-0.295889077457522,100,2.4345689040342,0.426,40
3,1,0.388,"ThreeGo","Go","Go_ThreeGo",-0.281455463923009,101,2.58883172559421,0.272,21
3,1,0.361,"ThreeGo","Go","Go_ThreeGo",-0.267021850388496,102,2.55750720190566,0.388,22
3,1,0.295,"ThreeGo","Go","Go_ThreeGo",-0.252588236853982,103,2.46982201597816,0.361,23
3,1,0,"ThreeGo","NoGo","NoGo_ThreeGo",-0.238154623319469,104,0,0.295,24
3,1,0.544,"OneGo","Go","Go_OneGo",-0.223721009784956,105,2.73559889969818,0,11
3,1,0.272,"FiveGo","Go","Go_FiveGo",-0.194853782715929,107,2.4345689040342,0.446,31
3,1,0.422,"FiveGo","Go","Go_FiveGo",-0.180420169181416,108,2.62531245096167,0.272,32
3,1,0.565,"FiveGo","Go","Go_FiveGo",-0.165986555646903,109,2.75204844781944,0.422,33
3,1,0.411,"FiveGo","Go","Go_FiveGo",-0.151552942112389,110,2.61384182187607,0.565,34
3,1,0.344,"FiveGo","Go","Go_FiveGo",-0.137119328577876,111,2.53655844257153,0.411,35
3,1,0,"FiveGo","NoGo","NoGo_FiveGo",-0.122685715043363,112,0,0.344,36
3,1,0.273,"SevenGo","Go","Go_SevenGo",-0.10825210150885,113,2.43616264704076,0,41
3,1,0.351,"SevenGo","Go","Go_SevenGo",-0.0938184879743363,114,2.54530711646582,0.273,42
3,1,0.364,"SevenGo","Go","Go_SevenGo",-0.079384874439823,115,2.56110138364906,0.351,43
3,1,0.29,"SevenGo","Go","Go_SevenGo",-0.0649512609053097,116,2.46239799789896,0.364,44
3,1,0.336,"SevenGo","Go","Go_SevenGo",-0.0505176473707964,117,2.52633927738984,0.29,45
3,1,0.39,"SevenGo","Go","Go_SevenGo",-0.0360840338362832,118,2.5910646070265,0.336,46
3,1,0.459,"SevenGo","Go","Go_SevenGo",-0.0216504203017699,119,2.66181268553726,0.39,47
3,1,0.301,"SevenGo","Go","Go_SevenGo",0.00721680676725664,121,2.47856649559384,0.409,49
3,1,0.243,"SevenGo","Go","Go_SevenGo",0.0216504203017699,122,2.38560627359831,0.301,50
3,1,0.432,"SevenGo","Go","Go_SevenGo",0.0360840338362832,123,2.63548374681491,0.243,51
3,1,0.326,"SevenGo","Go","Go_SevenGo",0.0505176473707964,124,2.51321760006794,0.432,52
3,1,0.324,"SevenGo","Go","Go_SevenGo",0.0649512609053097,125,2.51054501020661,0.326,53
3,1,0.258,"SevenGo","Go","Go_SevenGo",0.079384874439823,126,2.41161970596323,0.324,54
3,1,0.359,"SevenGo","Go","Go_SevenGo",0.0938184879743363,127,2.55509444857832,0.258,55
3,1,0,"SevenGo","NoGo","NoGo_SevenGo",0.10825210150885,128,0,0.359,56
3,1,0.296,"ThreeGo","Go","Go_ThreeGo",0.122685715043363,129,2.47129171105894,0,25
3,1,0.358,"ThreeGo","Go","Go_ThreeGo",0.137119328577876,130,2.55388302664387,0.296,26
3,1,0.331,"ThreeGo","Go","Go_ThreeGo",0.151552942112389,131,2.51982799377572,0.358,27
3,1,0,"ThreeGo","NoGo","NoGo_ThreeGo",0.165986555646903,132,0,0.331,28
3,1,0.245,"FiveGo","Go","Go_FiveGo",0.180420169181416,133,2.38916608436453,0,37
3,1,0.307,"FiveGo","Go","Go_FiveGo",0.194853782715929,134,2.48713837547719,0.245,38
3,1,0.408,"FiveGo","Go","Go_FiveGo",0.209287396250442,135,2.61066016308988,0.307,39
3,1,0.318,"FiveGo","Go","Go_FiveGo",0.223721009784956,136,2.50242711998443,0.408,40
3,1,0.348,"FiveGo","Go","Go_FiveGo",0.238154623319469,137,2.54157924394658,0.318,41
3,1,0,"FiveGo","NoGo","NoGo_FiveGo",0.252588236853982,138,0,0.348,42
3,1,0.268,"OneGo","Go","Go_OneGo",0.267021850388496,139,2.42813479402879,0,13
3,1,0,"OneGo","NoGo","NoGo_OneGo",0.281455463923009,140,0,0.268,14
3,1,0.374,"SevenGo","Go","Go_SevenGo",0.295889077457522,141,2.57287160220048,0,57
3,1,0.316,"SevenGo","Go","Go_SevenGo",0.310322690992035,142,2.4996870826184,0.374,58
3,1,0.313,"SevenGo","Go","Go_SevenGo",0.324756304526549,143,2.49554433754645,0.316,59
3,1,0.351,"SevenGo","Go","Go_SevenGo",0.339189918061062,144,2.54530711646582,0.313,60
3,1,0.485,"SevenGo","Go","Go_SevenGo",0.353623531595575,145,2.68574173860226,0.351,61
3,1,0.403,"SevenGo","Go","Go_SevenGo",0.368057145130088,146,2.60530504614111,0.485,62
3,1,0.424,"SevenGo","Go","Go_SevenGo",0.382490758664602,147,2.62736585659273,0.403,63
3,1,0,"SevenGo","NoGo","NoGo_SevenGo",0.396924372199115,148,0,0.424,64
3,1,0.249,"FiveGo","Go","Go_FiveGo",0.411357985733628,149,2.39619934709574,0,43
3,1,0.52,"FiveGo","Go","Go_FiveGo",0.425791599268141,150,2.7160033436348,0.249,44
3,1,0.285,"FiveGo","Go","Go_FiveGo",0.440225212802655,151,2.45484486000851,0.52,45
3,1,0.259,"FiveGo","Go","Go_FiveGo",0.454658826337168,152,2.41329976408125,0.285,46
3,1,0.265,"FiveGo","Go","Go_FiveGo",0.469092439871681,153,2.42324587393681,0.259,47
3,1,0,"FiveGo","NoGo","NoGo_FiveGo",0.483526053406195,154,0,0.265,48
3,1,0.297,"OneGo","Go","Go_OneGo",0.497959666940708,155,2.47275644931721,0,15
3,1,0,"OneGo","NoGo","NoGo_OneGo",0.512393280475221,156,0,0.297,16
3,1,0.25,"ThreeGo","Go","Go_ThreeGo",0.526826894009734,157,2.39794000867204,0,29
3,1,0.576,"ThreeGo","Go","Go_ThreeGo",0.541260507544248,158,2.76042248342321,0.25,30
3,1,0.454,"ThreeGo","Go","Go_ThreeGo",0.555694121078761,159,2.6570558528571,0.576,31
3,1,0,"ThreeGo","NoGo","NoGo_ThreeGo",0.570127734613274,160,0,0.454,32
3,0,0.322,"OneGo","NoGo","NoGo_OneGo",0.598994961682301,162,2.50785587169583,0.7,18
3,1,0.31,"FiveGo","Go","Go_FiveGo",0.613428575216814,163,2.49136169383427,0.322,49
3,1,0.292,"FiveGo","Go","Go_FiveGo",0.627862188751327,164,2.46538285144842,0.31,50
3,1,0.313,"FiveGo","Go","Go_FiveGo",0.64229580228584,165,2.49554433754645,0.292,51
3,1,0.271,"FiveGo","Go","Go_FiveGo",0.656729415820354,166,2.43296929087441,0.313,52
3,1,0.285,"FiveGo","Go","Go_FiveGo",0.671163029354867,167,2.45484486000851,0.271,53
3,0,0.227,"FiveGo","NoGo","NoGo_FiveGo",0.68559664288938,168,2.35602585719312,0.285,54
3,1,0.477,"ThreeGo","Go","Go_ThreeGo",0.700030256423894,169,2.67851837904011,0.227,33
3,1,0.307,"ThreeGo","Go","Go_ThreeGo",0.714463869958407,170,2.48713837547719,0.477,34
3,1,0.273,"ThreeGo","Go","Go_ThreeGo",0.72889748349292,171,2.43616264704076,0.307,35
3,1,0,"ThreeGo","NoGo","NoGo_ThreeGo",0.743331097027433,172,0,0.273,36
3,1,0.25,"SevenGo","Go","Go_SevenGo",0.757764710561947,173,2.39794000867204,0,65
3,1,0.32,"SevenGo","Go","Go_SevenGo",0.77219832409646,174,2.50514997831991,0.25,66
3,1,0.318,"SevenGo","Go","Go_SevenGo",0.786631937630973,175,2.50242711998443,0.32,67
3,1,0.308,"SevenGo","Go","Go_SevenGo",0.801065551165487,176,2.48855071650044,0.318,68
3,1,0.281,"SevenGo","Go","Go_SevenGo",0.8154991647,177,2.44870631990508,0.308,69
3,1,0.255,"SevenGo","Go","Go_SevenGo",0.829932778234513,178,2.40654018043396,0.281,70
3,1,0.253,"SevenGo","Go","Go_SevenGo",0.844366391769026,179,2.40312052117582,0.255,71
3,0,0.299,"SevenGo","NoGo","NoGo_SevenGo",0.85880000530354,180,2.47567118832443,0.253,72
3,1,0.277,"SevenGo","Go","Go_SevenGo",0.873233618838053,181,2.44247976906445,0.299,73
3,1,0.291,"SevenGo","Go","Go_SevenGo",0.887667232372566,182,2.46389298898591,0.277,74
3,1,0.329,"SevenGo","Go","Go_SevenGo",0.902100845907079,183,2.51719589794997,0.291,75
3,1,0.287,"SevenGo","Go","Go_SevenGo",0.916534459441593,184,2.45788189673399,0.329,76
3,1,0.302,"SevenGo","Go","Go_SevenGo",0.930968072976106,185,2.48000694295715,0.287,77
3,1,0.355,"SevenGo","Go","Go_SevenGo",0.945401686510619,186,2.55022835305509,0.302,78
3,1,0.321,"SevenGo","Go","Go_SevenGo",0.959835300045133,187,2.50650503240487,0.355,79
3,1,0,"SevenGo","NoGo","NoGo_SevenGo",0.974268913579646,188,0,0.321,80
3,1,0.257,"OneGo","Go","Go_OneGo",0.988702527114159,189,2.40993312333129,0,19
3,1,0,"OneGo","NoGo","NoGo_OneGo",1.00313614064867,190,0,0.257,20
3,1,0.322,"ThreeGo","Go","Go_ThreeGo",1.01756975418319,191,2.50785587169583,0,37
3,1,0.321,"ThreeGo","Go","Go_ThreeGo",1.0320033677177,192,2.50650503240487,0.322,38
3,1,0.302,"ThreeGo","Go","Go_ThreeGo",1.04643698125221,193,2.48000694295715,0.321,39
3,1,0,"ThreeGo","NoGo","NoGo_ThreeGo",1.06087059478673,194,0,0.302,40
3,1,0.295,"FiveGo","Go","Go_FiveGo",1.07530420832124,195,2.46982201597816,0,55
3,1,0.405,"FiveGo","Go","Go_FiveGo",1.08973782185575,196,2.60745502321467,0.295,56
3,1,0.298,"FiveGo","Go","Go_FiveGo",1.10417143539027,197,2.47421626407626,0.405,57
3,1,0.352,"FiveGo","Go","Go_FiveGo",1.11860504892478,198,2.54654266347813,0.298,58
3,1,0.374,"FiveGo","Go","Go_FiveGo",1.13303866245929,199,2.57287160220048,0.352,59
3,1,0,"FiveGo","NoGo","NoGo_FiveGo",1.1474722759938,200,0,0.374,60
3,1,0.278,"ThreeGo","Go","Go_ThreeGo",1.16190588952832,201,2.44404479591808,0,41
3,1,0.285,"ThreeGo","Go","Go_ThreeGo",1.17633950306283,202,2.45484486000851,0.278,42
3,1,0.459,"ThreeGo","Go","Go_ThreeGo",1.19077311659734,203,2.66181268553726,0.285,43
3,1,0,"ThreeGo","NoGo","NoGo_ThreeGo",1.20520673013186,204,0,0.459,44
3,1,0.283,"FiveGo","Go","Go_FiveGo",1.21964034366637,205,2.45178643552429,0,61
3,1,0.329,"FiveGo","Go","Go_FiveGo",1.23407395720088,206,2.51719589794997,0.283,62
3,1,0.271,"FiveGo","Go","Go_FiveGo",1.2485075707354,207,2.43296929087441,0.329,63
3,1,0.405,"FiveGo","Go","Go_FiveGo",1.26294118426991,208,2.60745502321467,0.271,64
3,1,0.322,"FiveGo","Go","Go_FiveGo",1.27737479780442,209,2.50785587169583,0.405,65
3,1,0,"FiveGo","NoGo","NoGo_FiveGo",1.29180841133894,210,0,0.322,66
3,1,0.284,"OneGo","Go","Go_OneGo",1.30624202487345,211,2.45331834004704,0,21
3,1,0,"OneGo","NoGo","NoGo_OneGo",1.32067563840796,212,0,0.284,22
3,1,0.404,"SevenGo","Go","Go_SevenGo",1.33510925194248,213,2.60638136511061,0,81
3,1,0.306,"SevenGo","Go","Go_SevenGo",1.34954286547699,214,2.48572142648158,0.404,82
3,1,0.352,"SevenGo","Go","Go_SevenGo",1.3639764790115,215,2.54654266347813,0.306,83
3,1,0.27,"SevenGo","Go","Go_SevenGo",1.37841009254602,216,2.43136376415899,0.352,84
3,1,0.315,"SevenGo","Go","Go_SevenGo",1.39284370608053,217,2.4983105537896,0.27,85
3,1,0.337,"SevenGo","Go","Go_SevenGo",1.40727731961504,218,2.52762990087134,0.315,86
3,1,0.287,"SevenGo","Go","Go_SevenGo",1.42171093314956,219,2.45788189673399,0.337,87
3,1,0,"SevenGo","NoGo","NoGo_SevenGo",1.43614454668407,220,0,0.287,88
3,1,0.312,"FiveGo","Go","Go_FiveGo",1.45057816021858,221,2.49415459401844,0,67
3,1,0.334,"FiveGo","Go","Go_FiveGo",1.4650117737531,222,2.52374646681156,0.312,68
3,1,0.324,"FiveGo","Go","Go_FiveGo",1.47944538728761,223,2.51054501020661,0.334,69
3,1,0.458,"FiveGo","Go","Go_FiveGo",1.49387900082212,224,2.66086547800387,0.324,70
3,1,0.303,"FiveGo","Go","Go_FiveGo",1.50831261435664,225,2.4814426285023,0.458,71
3,1,0,"FiveGo","NoGo","NoGo_FiveGo",1.52274622789115,226,0,0.303,72
3,1,0.224,"SevenGo","Go","Go_SevenGo",1.53717984142566,227,2.35024801833416,0,89
3,1,0.254,"SevenGo","Go","Go_SevenGo",1.55161345496018,228,2.40483371661994,0.224,90
3,1,0.211,"SevenGo","Go","Go_SevenGo",1.56604706849469,229,2.32428245529769,0.254,91
3,1,0.417,"SevenGo","Go","Go_SevenGo",1.5804806820292,230,2.62013605497376,0.211,92
3,1,0.351,"SevenGo","Go","Go_SevenGo",1.59491429556372,231,2.54530711646582,0.417,93
3,1,0.253,"SevenGo","Go","Go_SevenGo",1.60934790909823,232,2.40312052117582,0.351,94
3,1,0.354,"SevenGo","Go","Go_SevenGo",1.62378152263274,233,2.54900326202579,0.253,95
3,1,0.3,"ThreeGo","Go","Go_ThreeGo",1.65264874970177,235,2.47712125471966,0.408,45
3,1,0.242,"ThreeGo","Go","Go_ThreeGo",1.66708236323628,236,2.38381536598043,0.3,46
3,1,0.279,"ThreeGo","Go","Go_ThreeGo",1.6815159767708,237,2.4456042032736,0.242,47
3,1,0,"ThreeGo","NoGo","NoGo_ThreeGo",1.69594959030531,238,0,0.279,48
3,1,0.296,"OneGo","Go","Go_OneGo",1.71038320383982,239,2.47129171105894,0,23
3,0,0.302,"OneGo","NoGo","NoGo_OneGo",1.72481681737434,240,2.48000694295715,0.296,24
4,1,0.412,"SevenGo","Go","Go_SevenGo",-1.72481681737434,1,2.61489721603313,0.269803347280335,1
4,1,0.354,"SevenGo","Go","Go_SevenGo",-1.71038320383982,2,2.54900326202579,0.412,2
4,1,0.352,"SevenGo","Go","Go_SevenGo",-1.69594959030531,3,2.54654266347813,0.354,3
4,1,0.326,"SevenGo","Go","Go_SevenGo",-1.6815159767708,4,2.51321760006794,0.352,4
4,1,0.363,"SevenGo","Go","Go_SevenGo",-1.66708236323628,5,2.55990662503611,0.326,5
4,1,0.345,"SevenGo","Go","Go_SevenGo",-1.65264874970177,6,2.53781909507327,0.363,6
4,1,0.383,"SevenGo","Go","Go_SevenGo",-1.63821513616726,7,2.58319877396862,0.345,7
4,1,0,"SevenGo","NoGo","NoGo_SevenGo",-1.62378152263274,8,0,0.383,8
4,1,0.327,"OneGo","Go","Go_OneGo",-1.60934790909823,9,2.51454775266029,0,1
4,1,0,"OneGo","NoGo","NoGo_OneGo",-1.59491429556372,10,0,0.327,2
4,1,0.377,"ThreeGo","Go","Go_ThreeGo",-1.5804806820292,11,2.57634135020579,0,1
4,1,0.447,"ThreeGo","Go","Go_ThreeGo",-1.56604706849469,12,2.65030752313194,0.377,2
4,1,0.331,"ThreeGo","Go","Go_ThreeGo",-1.55161345496018,13,2.51982799377572,0.447,3
4,0,0.322,"ThreeGo","NoGo","NoGo_ThreeGo",-1.53717984142566,14,2.50785587169583,0.331,4
4,1,0.341,"FiveGo","Go","Go_FiveGo",-1.52274622789115,15,2.5327543789925,0.322,1
4,1,0.363,"FiveGo","Go","Go_FiveGo",-1.50831261435664,16,2.55990662503611,0.341,2
4,1,0.337,"FiveGo","Go","Go_FiveGo",-1.49387900082212,17,2.52762990087134,0.363,3
4,1,0.382,"FiveGo","Go","Go_FiveGo",-1.47944538728761,18,2.58206336291171,0.337,4
4,1,0.348,"FiveGo","Go","Go_FiveGo",-1.4650117737531,19,2.54157924394658,0.382,5
4,0,0.306,"FiveGo","NoGo","NoGo_FiveGo",-1.45057816021858,20,2.48572142648158,0.348,6
4,1,0.366,"ThreeGo","Go","Go_ThreeGo",-1.43614454668407,21,2.56348108539441,0.306,5
4,1,0.379,"ThreeGo","Go","Go_ThreeGo",-1.42171093314956,22,2.57863920996807,0.366,6
4,1,0.313,"ThreeGo","Go","Go_ThreeGo",-1.40727731961504,23,2.49554433754645,0.379,7
4,1,0,"ThreeGo","NoGo","NoGo_ThreeGo",-1.39284370608053,24,0,0.313,8
4,1,0.346,"SevenGo","Go","Go_SevenGo",-1.37841009254602,25,2.53907609879278,0,9
4,1,0.367,"SevenGo","Go","Go_SevenGo",-1.3639764790115,26,2.56466606425209,0.346,10
4,1,0.349,"SevenGo","Go","Go_SevenGo",-1.34954286547699,27,2.54282542695918,0.367,11
4,1,0.347,"SevenGo","Go","Go_SevenGo",-1.33510925194248,28,2.54032947479087,0.349,12
4,1,0.345,"SevenGo","Go","Go_SevenGo",-1.32067563840796,29,2.53781909507327,0.347,13
4,1,0.326,"SevenGo","Go","Go_SevenGo",-1.30624202487345,30,2.51321760006794,0.345,14
4,1,0.396,"SevenGo","Go","Go_SevenGo",-1.29180841133894,31,2.59769518592551,0.326,15
4,1,0,"SevenGo","NoGo","NoGo_SevenGo",-1.27737479780442,32,0,0.396,16
4,1,0.358,"OneGo","Go","Go_OneGo",-1.26294118426991,33,2.55388302664387,0,3
4,1,0,"OneGo","NoGo","NoGo_OneGo",-1.2485075707354,34,0,0.358,4
4,1,0.39,"FiveGo","Go","Go_FiveGo",-1.23407395720088,35,2.5910646070265,0,7
4,1,0.38,"FiveGo","Go","Go_FiveGo",-1.21964034366637,36,2.57978359661681,0.39,8
4,1,0.346,"FiveGo","Go","Go_FiveGo",-1.20520673013186,37,2.53907609879278,0.38,9
4,1,0.351,"FiveGo","Go","Go_FiveGo",-1.19077311659734,38,2.54530711646582,0.346,10
4,1,0.333,"FiveGo","Go","Go_FiveGo",-1.17633950306283,39,2.52244423350632,0.351,11
4,1,0,"FiveGo","NoGo","NoGo_FiveGo",-1.16190588952832,40,0,0.333,12
4,1,0.326,"SevenGo","Go","Go_SevenGo",-1.1474722759938,41,2.51321760006794,0,17
4,1,0.34,"SevenGo","Go","Go_SevenGo",-1.13303866245929,42,2.53147891704225,0.326,18
4,1,0.362,"SevenGo","Go","Go_SevenGo",-1.11860504892478,43,2.55870857053317,0.34,19
4,1,0.384,"SevenGo","Go","Go_SevenGo",-1.10417143539027,44,2.58433122436753,0.362,20
4,1,0.31,"SevenGo","Go","Go_SevenGo",-1.08973782185575,45,2.49136169383427,0.384,21
4,1,0.323,"SevenGo","Go","Go_SevenGo",-1.07530420832124,46,2.5092025223311,0.31,22
4,1,0.265,"SevenGo","Go","Go_SevenGo",-1.06087059478673,47,2.42324587393681,0.323,23
4,1,0,"SevenGo","NoGo","NoGo_SevenGo",-1.04643698125221,48,0,0.265,24
4,1,0.394,"FiveGo","Go","Go_FiveGo",-1.0320033677177,49,2.59549622182557,0,13
4,1,0.367,"FiveGo","Go","Go_FiveGo",-1.01756975418319,50,2.56466606425209,0.394,14
4,1,0.357,"FiveGo","Go","Go_FiveGo",-1.00313614064867,51,2.55266821611219,0.367,15
4,1,0.347,"FiveGo","Go","Go_FiveGo",-0.988702527114159,52,2.54032947479087,0.357,16
4,1,0.37,"FiveGo","Go","Go_FiveGo",-0.974268913579646,53,2.56820172406699,0.347,17
4,1,0,"FiveGo","NoGo","NoGo_FiveGo",-0.959835300045133,54,0,0.37,18
4,1,0.314,"OneGo","Go","Go_OneGo",-0.945401686510619,55,2.49692964807321,0,5
4,1,0,"OneGo","NoGo","NoGo_OneGo",-0.930968072976106,56,0,0.314,6
4,1,0.315,"ThreeGo","Go","Go_ThreeGo",-0.916534459441593,57,2.4983105537896,0,9
4,1,0.368,"ThreeGo","Go","Go_ThreeGo",-0.902100845907079,58,2.56584781867352,0.315,10
4,1,0.318,"ThreeGo","Go","Go_ThreeGo",-0.887667232372566,59,2.50242711998443,0.368,11
4,1,0,"ThreeGo","NoGo","NoGo_ThreeGo",-0.873233618838053,60,0,0.318,12
4,1,0.32,"ThreeGo","Go","Go_ThreeGo",-0.85880000530354,61,2.50514997831991,0,13
4,1,0.333,"ThreeGo","Go","Go_ThreeGo",-0.844366391769026,62,2.52244423350632,0.32,14
4,1,0.283,"ThreeGo","Go","Go_ThreeGo",-0.829932778234513,63,2.45178643552429,0.333,15
4,1,0,"ThreeGo","NoGo","NoGo_ThreeGo",-0.8154991647,64,0,0.283,16
4,1,0.34,"OneGo","Go","Go_OneGo",-0.801065551165487,65,2.53147891704225,0,7
4,1,0,"OneGo","NoGo","NoGo_OneGo",-0.786631937630973,66,0,0.34,8
4,1,0.309,"SevenGo","Go","Go_SevenGo",-0.77219832409646,67,2.48995847942483,0,25
4,1,0.363,"SevenGo","Go","Go_SevenGo",-0.757764710561947,68,2.55990662503611,0.309,26
4,1,0.353,"SevenGo","Go","Go_SevenGo",-0.743331097027433,69,2.54777470538782,0.363,27
4,1,0.342,"SevenGo","Go","Go_SevenGo",-0.72889748349292,70,2.53402610605613,0.353,28
4,1,0.34,"SevenGo","Go","Go_SevenGo",-0.714463869958407,71,2.53147891704225,0.342,29
4,1,0.41,"SevenGo","Go","Go_SevenGo",-0.700030256423894,72,2.61278385671974,0.34,30
4,1,0.288,"SevenGo","Go","Go_SevenGo",-0.68559664288938,73,2.45939248775923,0.41,31
4,1,0,"SevenGo","NoGo","NoGo_SevenGo",-0.671163029354867,74,0,0.288,32
4,1,0.288,"FiveGo","Go","Go_FiveGo",-0.656729415820354,75,2.45939248775923,0,19
4,1,0.318,"FiveGo","Go","Go_FiveGo",-0.64229580228584,76,2.50242711998443,0.288,20
4,1,0.324,"FiveGo","Go","Go_FiveGo",-0.627862188751327,77,2.51054501020661,0.318,21
4,1,0.377,"FiveGo","Go","Go_FiveGo",-0.613428575216814,78,2.57634135020579,0.324,22
4,1,0.367,"FiveGo","Go","Go_FiveGo",-0.598994961682301,79,2.56466606425209,0.377,23
4,1,0,"FiveGo","NoGo","NoGo_FiveGo",-0.584561348147787,80,0,0.367,24
4,1,0.354,"FiveGo","Go","Go_FiveGo",-0.570127734613274,81,2.54900326202579,0,25
4,1,0.312,"FiveGo","Go","Go_FiveGo",-0.555694121078761,82,2.49415459401844,0.354,26
4,1,0.318,"FiveGo","Go","Go_FiveGo",-0.541260507544248,83,2.50242711998443,0.312,27
4,1,0.324,"FiveGo","Go","Go_FiveGo",-0.526826894009734,84,2.51054501020661,0.318,28
4,1,0.353,"FiveGo","Go","Go_FiveGo",-0.512393280475221,85,2.54777470538782,0.324,29
4,1,0,"FiveGo","NoGo","NoGo_FiveGo",-0.497959666940708,86,0,0.353,30
4,1,0.298,"OneGo","Go","Go_OneGo",-0.483526053406195,87,2.47421626407626,0,9
4,1,0,"OneGo","NoGo","NoGo_OneGo",-0.469092439871681,88,0,0.298,10
4,1,0.331,"SevenGo","Go","Go_SevenGo",-0.454658826337168,89,2.51982799377572,0,33
4,1,0.377,"SevenGo","Go","Go_SevenGo",-0.440225212802655,90,2.57634135020579,0.331,34
4,1,0.335,"SevenGo","Go","Go_SevenGo",-0.425791599268141,91,2.52504480703685,0.377,35
4,1,0.349,"SevenGo","Go","Go_SevenGo",-0.411357985733628,92,2.54282542695918,0.335,36
4,1,0.33,"SevenGo","Go","Go_SevenGo",-0.396924372199115,93,2.51851393987789,0.349,37
4,1,0.336,"SevenGo","Go","Go_SevenGo",-0.382490758664602,94,2.52633927738984,0.33,38
4,1,0.43,"SevenGo","Go","Go_SevenGo",-0.368057145130088,95,2.63346845557959,0.336,39
4,1,0,"SevenGo","NoGo","NoGo_SevenGo",-0.353623531595575,96,0,0.43,40
4,1,0.286,"ThreeGo","Go","Go_ThreeGo",-0.339189918061062,97,2.45636603312904,0,17
4,1,0.316,"ThreeGo","Go","Go_ThreeGo",-0.324756304526549,98,2.4996870826184,0.286,18
4,1,0.298,"ThreeGo","Go","Go_ThreeGo",-0.310322690992035,99,2.47421626407626,0.316,19
4,0,0.288,"ThreeGo","NoGo","NoGo_ThreeGo",-0.295889077457522,100,2.45939248775923,0.298,20
4,1,0.323,"ThreeGo","Go","Go_ThreeGo",-0.281455463923009,101,2.5092025223311,0.288,21
4,1,0.305,"ThreeGo","Go","Go_ThreeGo",-0.267021850388496,102,2.48429983934679,0.323,22
4,1,0.319,"ThreeGo","Go","Go_ThreeGo",-0.252588236853982,103,2.50379068305718,0.305,23
4,0,0.301,"ThreeGo","NoGo","NoGo_ThreeGo",-0.238154623319469,104,2.47856649559384,0.319,24
4,1,0.327,"FiveGo","Go","Go_FiveGo",-0.223721009784956,105,2.51454775266029,0.301,31
4,1,0.341,"FiveGo","Go","Go_FiveGo",-0.209287396250442,106,2.5327543789925,0.327,32
4,1,0.331,"FiveGo","Go","Go_FiveGo",-0.194853782715929,107,2.51982799377572,0.341,33
4,1,0.337,"FiveGo","Go","Go_FiveGo",-0.180420169181416,108,2.52762990087134,0.331,34
4,1,0.39,"FiveGo","Go","Go_FiveGo",-0.165986555646903,109,2.5910646070265,0.337,35
4,1,0,"FiveGo","NoGo","NoGo_FiveGo",-0.151552942112389,110,0,0.39,36
4,1,0.296,"OneGo","Go","Go_OneGo",-0.137119328577876,111,2.47129171105894,0,11
4,1,0,"OneGo","NoGo","NoGo_OneGo",-0.122685715043363,112,0,0.296,12
4,1,0.296,"SevenGo","Go","Go_SevenGo",-0.10825210150885,113,2.47129171105894,0,41
4,1,0.318,"SevenGo","Go","Go_SevenGo",-0.0938184879743363,114,2.50242711998443,0.296,42
4,1,0.324,"SevenGo","Go","Go_SevenGo",-0.079384874439823,115,2.51054501020661,0.318,43
4,1,0.338,"SevenGo","Go","Go_SevenGo",-0.0649512609053097,116,2.52891670027765,0.324,44
4,1,0.311,"SevenGo","Go","Go_SevenGo",-0.0505176473707964,117,2.49276038902684,0.338,45
4,1,0.349,"SevenGo","Go","Go_SevenGo",-0.0360840338362832,118,2.54282542695918,0.311,46
4,1,0.323,"SevenGo","Go","Go_SevenGo",-0.0216504203017699,119,2.5092025223311,0.349,47
4,1,0,"SevenGo","NoGo","NoGo_SevenGo",-0.00721680676725664,120,0,0.323,48
4,1,0.301,"ThreeGo","Go","Go_ThreeGo",0.00721680676725664,121,2.47856649559384,0,25
4,1,0.394,"ThreeGo","Go","Go_ThreeGo",0.0216504203017699,122,2.59549622182557,0.301,26
4,1,0.304,"ThreeGo","Go","Go_ThreeGo",0.0360840338362832,123,2.48287358360875,0.394,27
4,1,0,"ThreeGo","NoGo","NoGo_ThreeGo",0.0505176473707964,124,0,0.304,28
4,1,0.281,"OneGo","Go","Go_OneGo",0.0649512609053097,125,2.44870631990508,0,13
4,0,0.294,"OneGo","NoGo","NoGo_OneGo",0.079384874439823,126,2.46834733041216,0.281,14
4,1,0.274,"SevenGo","Go","Go_SevenGo",0.0938184879743363,127,2.43775056282039,0.294,49
4,1,0.4,"SevenGo","Go","Go_SevenGo",0.10825210150885,128,2.60205999132796,0.274,50
4,1,0.382,"SevenGo","Go","Go_SevenGo",0.122685715043363,129,2.58206336291171,0.4,51
4,1,0.491,"SevenGo","Go","Go_SevenGo",0.137119328577876,130,2.69108149212297,0.382,52
4,1,0.361,"SevenGo","Go","Go_SevenGo",0.151552942112389,131,2.55750720190566,0.491,53
4,1,0.303,"SevenGo","Go","Go_SevenGo",0.165986555646903,132,2.4814426285023,0.361,54
4,1,0.348,"SevenGo","Go","Go_SevenGo",0.180420169181416,133,2.54157924394658,0.303,55
4,1,0,"SevenGo","NoGo","NoGo_SevenGo",0.194853782715929,134,0,0.348,56
4,1,0.333,"FiveGo","Go","Go_FiveGo",0.209287396250442,135,2.52244423350632,0,37
4,1,0.347,"FiveGo","Go","Go_FiveGo",0.223721009784956,136,2.54032947479087,0.333,38
4,1,0.337,"FiveGo","Go","Go_FiveGo",0.238154623319469,137,2.52762990087134,0.347,39
4,1,0.342,"FiveGo","Go","Go_FiveGo",0.252588236853982,138,2.53402610605613,0.337,40
4,1,0.349,"FiveGo","Go","Go_FiveGo",0.267021850388496,139,2.54282542695918,0.342,41
4,1,0,"FiveGo","NoGo","NoGo_FiveGo",0.281455463923009,140,0,0.349,42
4,1,0.262,"OneGo","Go","Go_OneGo",0.295889077457522,141,2.41830129131975,0,15
4,1,0,"OneGo","NoGo","NoGo_OneGo",0.310322690992035,142,0,0.262,16
4,1,0.294,"SevenGo","Go","Go_SevenGo",0.324756304526549,143,2.46834733041216,0,57
4,1,0.34,"SevenGo","Go","Go_SevenGo",0.339189918061062,144,2.53147891704225,0.294,58
4,1,0.322,"SevenGo","Go","Go_SevenGo",0.353623531595575,145,2.50785587169583,0.34,59
4,1,0.311,"SevenGo","Go","Go_SevenGo",0.368057145130088,146,2.49276038902684,0.322,60
4,1,0.334,"SevenGo","Go","Go_SevenGo",0.382490758664602,147,2.52374646681156,0.311,61
4,1,0.316,"SevenGo","Go","Go_SevenGo",0.396924372199115,148,2.4996870826184,0.334,62
4,1,0.306,"SevenGo","Go","Go_SevenGo",0.411357985733628,149,2.48572142648158,0.316,63
4,1,0,"SevenGo","NoGo","NoGo_SevenGo",0.425791599268141,150,0,0.306,64
4,1,0.314,"FiveGo","Go","Go_FiveGo",0.440225212802655,151,2.49692964807321,0,43
4,1,0.352,"FiveGo","Go","Go_FiveGo",0.454658826337168,152,2.54654266347813,0.314,44
4,1,0.462,"FiveGo","Go","Go_FiveGo",0.469092439871681,153,2.66464197555613,0.352,45
4,1,0.307,"FiveGo","Go","Go_FiveGo",0.483526053406195,154,2.48713837547719,0.462,46
4,1,0.345,"FiveGo","Go","Go_FiveGo",0.497959666940708,155,2.53781909507327,0.307,47
4,1,0,"FiveGo","NoGo","NoGo_FiveGo",0.512393280475221,156,0,0.345,48
4,1,0.235,"ThreeGo","Go","Go_ThreeGo",0.526826894009734,157,2.37106786227174,0,29
4,1,0.264,"ThreeGo","Go","Go_ThreeGo",0.541260507544248,158,2.42160392686983,0.235,30
4,1,0.302,"ThreeGo","Go","Go_ThreeGo",0.555694121078761,159,2.48000694295715,0.264,31
4,1,0,"ThreeGo","NoGo","NoGo_ThreeGo",0.570127734613274,160,0,0.302,32
4,1,0.394,"OneGo","Go","Go_OneGo",0.584561348147787,161,2.59549622182557,0,17
4,1,0,"OneGo","NoGo","NoGo_OneGo",0.598994961682301,162,0,0.394,18
4,1,0.331,"FiveGo","Go","Go_FiveGo",0.613428575216814,163,2.51982799377572,0,49
4,1,0.385,"FiveGo","Go","Go_FiveGo",0.627862188751327,164,2.5854607295085,0.331,50
4,1,0.335,"FiveGo","Go","Go_FiveGo",0.64229580228584,165,2.52504480703685,0.385,51
4,1,0.309,"FiveGo","Go","Go_FiveGo",0.656729415820354,166,2.48995847942483,0.335,52
4,1,0.298,"FiveGo","Go","Go_FiveGo",0.671163029354867,167,2.47421626407626,0.309,53
4,1,0,"FiveGo","NoGo","NoGo_FiveGo",0.68559664288938,168,0,0.298,54
4,1,0.307,"ThreeGo","Go","Go_ThreeGo",0.700030256423894,169,2.48713837547719,0,33
4,1,0.377,"ThreeGo","Go","Go_ThreeGo",0.714463869958407,170,2.57634135020579,0.307,34
4,1,0.318,"ThreeGo","Go","Go_ThreeGo",0.72889748349292,171,2.50242711998443,0.377,35
4,1,0,"ThreeGo","NoGo","NoGo_ThreeGo",0.743331097027433,172,0,0.318,36
4,1,0.32,"SevenGo","Go","Go_SevenGo",0.757764710561947,173,2.50514997831991,0,65
4,1,0.326,"SevenGo","Go","Go_SevenGo",0.77219832409646,174,2.51321760006794,0.32,66
4,1,0.299,"SevenGo","Go","Go_SevenGo",0.786631937630973,175,2.47567118832443,0.326,67
4,1,0.305,"SevenGo","Go","Go_SevenGo",0.801065551165487,176,2.48429983934679,0.299,68
4,1,0.295,"SevenGo","Go","Go_SevenGo",0.8154991647,177,2.46982201597816,0.305,69
4,1,0.277,"SevenGo","Go","Go_SevenGo",0.829932778234513,178,2.44247976906445,0.295,70
4,1,0.33,"SevenGo","Go","Go_SevenGo",0.844366391769026,179,2.51851393987789,0.277,71
4,1,0,"SevenGo","NoGo","NoGo_SevenGo",0.85880000530354,180,0,0.33,72
4,1,0.283,"SevenGo","Go","Go_SevenGo",0.873233618838053,181,2.45178643552429,0,73
4,1,0.305,"SevenGo","Go","Go_SevenGo",0.887667232372566,182,2.48429983934679,0.283,74
4,1,0.311,"SevenGo","Go","Go_SevenGo",0.902100845907079,183,2.49276038902684,0.305,75
4,1,0.301,"SevenGo","Go","Go_SevenGo",0.916534459441593,184,2.47856649559384,0.311,76
4,1,0.291,"SevenGo","Go","Go_SevenGo",0.930968072976106,185,2.46389298898591,0.301,77
4,1,0.257,"SevenGo","Go","Go_SevenGo",0.945401686510619,186,2.40993312333129,0.291,78
4,1,0.278,"SevenGo","Go","Go_SevenGo",0.959835300045133,187,2.44404479591808,0.257,79
4,1,0,"SevenGo","NoGo","NoGo_SevenGo",0.974268913579646,188,0,0.278,80
4,1,0.247,"FiveGo","Go","Go_FiveGo",0.988702527114159,189,2.39269695325967,0,55
4,1,0.325,"FiveGo","Go","Go_FiveGo",1.00313614064867,190,2.51188336097887,0.247,56
4,1,0.282,"FiveGo","Go","Go_FiveGo",1.01756975418319,191,2.45024910831936,0.325,57
4,1,0.296,"FiveGo","Go","Go_FiveGo",1.0320033677177,192,2.47129171105894,0.282,58
4,1,0.302,"FiveGo","Go","Go_FiveGo",1.04643698125221,193,2.48000694295715,0.296,59
4,1,0,"FiveGo","NoGo","NoGo_FiveGo",1.06087059478673,194,0,0.302,60
4,1,0.271,"OneGo","Go","Go_OneGo",1.07530420832124,195,2.43296929087441,0,19
4,1,0,"OneGo","NoGo","NoGo_OneGo",1.08973782185575,196,0,0.271,20
4,1,0.296,"ThreeGo","Go","Go_ThreeGo",1.10417143539027,197,2.47129171105894,0,37
4,1,0.294,"ThreeGo","Go","Go_ThreeGo",1.11860504892478,198,2.46834733041216,0.296,38
4,1,0.347,"ThreeGo","Go","Go_ThreeGo",1.13303866245929,199,2.54032947479087,0.294,39
4,1,0,"ThreeGo","NoGo","NoGo_ThreeGo",1.1474722759938,200,0,0.347,40
4,1,0.293,"FiveGo","Go","Go_FiveGo",1.16190588952832,201,2.46686762035411,0,61
4,1,0.411,"FiveGo","Go","Go_FiveGo",1.17633950306283,202,2.61384182187607,0.293,62
4,1,0.304,"FiveGo","Go","Go_FiveGo",1.19077311659734,203,2.48287358360875,0.411,63
4,1,0.286,"FiveGo","Go","Go_FiveGo",1.20520673013186,204,2.45636603312904,0.304,64
4,1,0.348,"FiveGo","Go","Go_FiveGo",1.21964034366637,205,2.54157924394658,0.286,65
4,1,0,"FiveGo","NoGo","NoGo_FiveGo",1.23407395720088,206,0,0.348,66
4,1,0.276,"OneGo","Go","Go_OneGo",1.2485075707354,207,2.44090908206522,0,21
4,1,0,"OneGo","NoGo","NoGo_OneGo",1.26294118426991,208,0,0.276,22
4,1,0.294,"ThreeGo","Go","Go_ThreeGo",1.27737479780442,209,2.46834733041216,0,41
4,1,0.308,"ThreeGo","Go","Go_ThreeGo",1.29180841133894,210,2.48855071650044,0.294,42
4,1,0.297,"ThreeGo","Go","Go_ThreeGo",1.30624202487345,211,2.47275644931721,0.308,43
4,1,0,"ThreeGo","NoGo","NoGo_ThreeGo",1.32067563840796,212,0,0.297,44
4,1,0.354,"SevenGo","Go","Go_SevenGo",1.33510925194248,213,2.54900326202579,0,81
4,1,0.32,"SevenGo","Go","Go_SevenGo",1.34954286547699,214,2.50514997831991,0.354,82
4,1,0.373,"SevenGo","Go","Go_SevenGo",1.3639764790115,215,2.57170883180869,0.32,83
4,1,0.307,"SevenGo","Go","Go_SevenGo",1.37841009254602,216,2.48713837547719,0.373,84
4,1,0.321,"SevenGo","Go","Go_SevenGo",1.39284370608053,217,2.50650503240487,0.307,85
4,1,0.327,"SevenGo","Go","Go_SevenGo",1.40727731961504,218,2.51454775266029,0.321,86
4,1,0.284,"SevenGo","Go","Go_SevenGo",1.42171093314956,219,2.45331834004704,0.327,87
4,1,0,"SevenGo","NoGo","NoGo_SevenGo",1.43614454668407,220,0,0.284,88
4,1,0.294,"FiveGo","Go","Go_FiveGo",1.45057816021858,221,2.46834733041216,0,67
4,1,0.284,"FiveGo","Go","Go_FiveGo",1.4650117737531,222,2.45331834004704,0.294,68
4,1,0.241,"FiveGo","Go","Go_FiveGo",1.47944538728761,223,2.38201704257487,0.284,69
4,1,0.287,"FiveGo","Go","Go_FiveGo",1.49387900082212,224,2.45788189673399,0.241,70
4,1,0.309,"FiveGo","Go","Go_FiveGo",1.50831261435664,225,2.48995847942483,0.287,71
4,1,0,"FiveGo","NoGo","NoGo_FiveGo",1.52274622789115,226,0,0.309,72
4,1,0.245,"ThreeGo","Go","Go_ThreeGo",1.53717984142566,227,2.38916608436453,0,45
4,1,0.251,"ThreeGo","Go","Go_ThreeGo",1.55161345496018,228,2.39967372148104,0.245,46
4,1,0.297,"ThreeGo","Go","Go_ThreeGo",1.56604706849469,229,2.47275644931721,0.251,47
4,1,0,"ThreeGo","NoGo","NoGo_ThreeGo",1.5804806820292,230,0,0.297,48
4,1,0.218,"SevenGo","Go","Go_SevenGo",1.59491429556372,231,2.3384564936046,0,89
4,1,0.28,"SevenGo","Go","Go_SevenGo",1.60934790909823,232,2.44715803134222,0.218,90
4,1,0.35,"SevenGo","Go","Go_SevenGo",1.62378152263274,233,2.54406804435028,0.28,91
4,1,0.316,"SevenGo","Go","Go_SevenGo",1.63821513616726,234,2.4996870826184,0.35,92
4,1,0.281,"SevenGo","Go","Go_SevenGo",1.65264874970177,235,2.44870631990508,0.316,93
4,1,0.271,"SevenGo","Go","Go_SevenGo",1.66708236323628,236,2.43296929087441,0.281,94
4,1,0.293,"SevenGo","Go","Go_SevenGo",1.6815159767708,237,2.46686762035411,0.271,95
4,1,0,"SevenGo","NoGo","NoGo_SevenGo",1.69594959030531,238,0,0.293,96
4,1,0.277,"OneGo","Go","Go_OneGo",1.71038320383982,239,2.44247976906445,0,23
4,1,0,"OneGo","NoGo","NoGo_OneGo",1.72481681737434,240,0,0.277,24
5,1,0.322,"ThreeGo","Go","Go_ThreeGo",-1.72481681737434,1,2.50785587169583,0.27681512605042,1
5,1,0.36,"ThreeGo","Go","Go_ThreeGo",-1.71038320383982,2,2.55630250076729,0.322,2
5,1,0.325,"ThreeGo","Go","Go_ThreeGo",-1.69594959030531,3,2.51188336097887,0.36,3
5,1,0,"ThreeGo","NoGo","NoGo_ThreeGo",-1.6815159767708,4,0,0.325,4
5,1,0.311,"FiveGo","Go","Go_FiveGo",-1.66708236323628,5,2.49276038902684,0,1
5,1,0.365,"FiveGo","Go","Go_FiveGo",-1.65264874970177,6,2.56229286445647,0.311,2
5,1,0.33,"FiveGo","Go","Go_FiveGo",-1.63821513616726,7,2.51851393987789,0.365,3
5,1,0.232,"FiveGo","Go","Go_FiveGo",-1.62378152263274,8,2.3654879848909,0.33,4
5,1,0.334,"FiveGo","Go","Go_FiveGo",-1.60934790909823,9,2.52374646681156,0.232,5
5,1,0,"FiveGo","NoGo","NoGo_FiveGo",-1.59491429556372,10,0,0.334,6
5,1,0.326,"SevenGo","Go","Go_SevenGo",-1.5804806820292,11,2.51321760006794,0,1
5,1,0.285,"SevenGo","Go","Go_SevenGo",-1.56604706849469,12,2.45484486000851,0.326,2
5,1,0.235,"SevenGo","Go","Go_SevenGo",-1.55161345496018,13,2.37106786227174,0.285,3
5,1,0.345,"SevenGo","Go","Go_SevenGo",-1.53717984142566,14,2.53781909507327,0.235,4
5,1,0.294,"SevenGo","Go","Go_SevenGo",-1.52274622789115,15,2.46834733041216,0.345,5
5,1,0.292,"SevenGo","Go","Go_SevenGo",-1.50831261435664,16,2.46538285144842,0.294,6
5,1,0.434,"SevenGo","Go","Go_SevenGo",-1.49387900082212,17,2.63748972951251,0.292,7
5,0,0.312,"SevenGo","NoGo","NoGo_SevenGo",-1.47944538728761,18,2.49415459401844,0.434,8
5,1,0.314,"OneGo","Go","Go_OneGo",-1.4650117737531,19,2.49692964807321,0.312,1
5,1,0,"OneGo","NoGo","NoGo_OneGo",-1.45057816021858,20,0,0.314,2
5,1,0.268,"ThreeGo","Go","Go_ThreeGo",-1.43614454668407,21,2.42813479402879,0,5
5,1,0.33,"ThreeGo","Go","Go_ThreeGo",-1.42171093314956,22,2.51851393987789,0.268,6
5,1,0.311,"ThreeGo","Go","Go_ThreeGo",-1.40727731961504,23,2.49276038902684,0.33,7
5,1,0,"ThreeGo","NoGo","NoGo_ThreeGo",-1.39284370608053,24,0,0.311,8
5,1,0.368,"SevenGo","Go","Go_SevenGo",-1.37841009254602,25,2.56584781867352,0,9
5,1,0.398,"SevenGo","Go","Go_SevenGo",-1.3639764790115,26,2.59988307207369,0.368,10
5,1,0.355,"SevenGo","Go","Go_SevenGo",-1.34954286547699,27,2.55022835305509,0.398,11
5,1,0.353,"SevenGo","Go","Go_SevenGo",-1.33510925194248,28,2.54777470538782,0.355,12
5,1,0.311,"SevenGo","Go","Go_SevenGo",-1.32067563840796,29,2.49276038902684,0.353,13
5,1,0.317,"SevenGo","Go","Go_SevenGo",-1.30624202487345,30,2.50105926221775,0.311,14
5,1,0.306,"SevenGo","Go","Go_SevenGo",-1.29180841133894,31,2.48572142648158,0.317,15
5,1,0,"SevenGo","NoGo","NoGo_SevenGo",-1.27737479780442,32,0,0.306,16
5,1,0.284,"OneGo","Go","Go_OneGo",-1.26294118426991,33,2.45331834004704,0,3
5,1,0,"OneGo","NoGo","NoGo_OneGo",-1.2485075707354,34,0,0.284,4
5,1,0.364,"FiveGo","Go","Go_FiveGo",-1.23407395720088,35,2.56110138364906,0,7
5,1,0.354,"FiveGo","Go","Go_FiveGo",-1.21964034366637,36,2.54900326202579,0.364,8
5,1,0.496,"FiveGo","Go","Go_FiveGo",-1.20520673013186,37,2.6954816764902,0.354,9
5,1,0.494,"FiveGo","Go","Go_FiveGo",-1.19077311659734,38,2.69372694892365,0.496,10
5,1,0.387,"FiveGo","Go","Go_FiveGo",-1.17633950306283,39,2.58771096501891,0.494,11
5,1,0,"FiveGo","NoGo","NoGo_FiveGo",-1.16190588952832,40,0,0.387,12
5,1,0.469,"OneGo","Go","Go_OneGo",-1.1474722759938,41,2.67117284271508,0,5
5,1,0,"OneGo","NoGo","NoGo_OneGo",-1.13303866245929,42,0,0.469,6
5,1,0.333,"ThreeGo","Go","Go_ThreeGo",-1.11860504892478,43,2.52244423350632,0,9
5,1,0.331,"ThreeGo","Go","Go_ThreeGo",-1.10417143539027,44,2.51982799377572,0.333,10
5,1,0.361,"ThreeGo","Go","Go_ThreeGo",-1.08973782185575,45,2.55750720190566,0.331,11
5,1,0,"ThreeGo","NoGo","NoGo_ThreeGo",-1.07530420832124,46,0,0.361,12
5,1,0.369,"FiveGo","Go","Go_FiveGo",-1.06087059478673,47,2.56702636615906,0,13
5,1,0.368,"FiveGo","Go","Go_FiveGo",-1.04643698125221,48,2.56584781867352,0.369,14
5,1,0.35,"FiveGo","Go","Go_FiveGo",-1.0320033677177,49,2.54406804435028,0.368,15
5,1,0.38,"FiveGo","Go","Go_FiveGo",-1.01756975418319,50,2.57978359661681,0.35,16
5,1,0.585,"FiveGo","Go","Go_FiveGo",-1.00313614064867,51,2.76715586608218,0.38,17
5,1,0,"FiveGo","NoGo","NoGo_FiveGo",-0.988702527114159,52,0,0.585,18
5,1,0.442,"SevenGo","Go","Go_SevenGo",-0.974268913579646,53,2.64542226934909,0,17
5,1,0.368,"SevenGo","Go","Go_SevenGo",-0.959835300045133,54,2.56584781867352,0.442,18
5,1,0.365,"SevenGo","Go","Go_SevenGo",-0.945401686510619,55,2.56229286445647,0.368,19
5,1,0.323,"SevenGo","Go","Go_SevenGo",-0.930968072976106,56,2.5092025223311,0.365,20
5,1,0.353,"SevenGo","Go","Go_SevenGo",-0.916534459441593,57,2.54777470538782,0.323,21
5,1,0.359,"SevenGo","Go","Go_SevenGo",-0.902100845907079,58,2.55509444857832,0.353,22
5,1,0.316,"SevenGo","Go","Go_SevenGo",-0.887667232372566,59,2.4996870826184,0.359,23
5,1,0,"SevenGo","NoGo","NoGo_SevenGo",-0.873233618838053,60,0,0.316,24
5,1,0.374,"OneGo","Go","Go_OneGo",-0.85880000530354,61,2.57287160220048,0,7
5,1,0,"OneGo","NoGo","NoGo_OneGo",-0.844366391769026,62,0,0.374,8
5,1,0.294,"FiveGo","Go","Go_FiveGo",-0.829932778234513,63,2.46834733041216,0,19
5,1,0.3,"FiveGo","Go","Go_FiveGo",-0.8154991647,64,2.47712125471966,0.294,20
5,1,0.314,"FiveGo","Go","Go_FiveGo",-0.801065551165487,65,2.49692964807321,0.3,21
5,1,0.304,"FiveGo","Go","Go_FiveGo",-0.786631937630973,66,2.48287358360875,0.314,22
5,1,0.357,"FiveGo","Go","Go_FiveGo",-0.77219832409646,67,2.55266821611219,0.304,23
5,1,0,"FiveGo","NoGo","NoGo_FiveGo",-0.757764710561947,68,0,0.357,24
5,1,0.327,"SevenGo","Go","Go_SevenGo",-0.743331097027433,69,2.51454775266029,0,25
5,1,0.237,"SevenGo","Go","Go_SevenGo",-0.72889748349292,70,2.3747483460101,0.327,26
5,1,0.283,"SevenGo","Go","Go_SevenGo",-0.714463869958407,71,2.45178643552429,0.237,27
5,1,0.288,"SevenGo","Go","Go_SevenGo",-0.700030256423894,72,2.45939248775923,0.283,28
5,1,0.326,"SevenGo","Go","Go_SevenGo",-0.68559664288938,73,2.51321760006794,0.288,29
5,1,0.332,"SevenGo","Go","Go_SevenGo",-0.671163029354867,74,2.52113808370404,0.326,30
5,1,0.337,"SevenGo","Go","Go_SevenGo",-0.656729415820354,75,2.52762990087134,0.332,31
5,1,0,"SevenGo","NoGo","NoGo_SevenGo",-0.64229580228584,76,0,0.337,32
5,1,0.29,"ThreeGo","Go","Go_ThreeGo",-0.627862188751327,77,2.46239799789896,0,13
5,1,0.248,"ThreeGo","Go","Go_ThreeGo",-0.613428575216814,78,2.39445168082622,0.29,14
5,1,0.325,"ThreeGo","Go","Go_ThreeGo",-0.598994961682301,79,2.51188336097887,0.248,15
5,1,0,"ThreeGo","NoGo","NoGo_ThreeGo",-0.584561348147787,80,0,0.325,16
5,1,0.346,"SevenGo","Go","Go_SevenGo",-0.570127734613274,81,2.53907609879278,0,33
5,1,0.32,"SevenGo","Go","Go_SevenGo",-0.555694121078761,82,2.50514997831991,0.346,34
5,1,0.261,"SevenGo","Go","Go_SevenGo",-0.541260507544248,83,2.41664050733828,0.32,35
5,1,0.347,"SevenGo","Go","Go_SevenGo",-0.526826894009734,84,2.54032947479087,0.261,36
5,1,0.265,"SevenGo","Go","Go_SevenGo",-0.512393280475221,85,2.42324587393681,0.347,37
5,1,0.263,"SevenGo","Go","Go_SevenGo",-0.497959666940708,86,2.41995574848976,0.265,38
5,1,0.276,"SevenGo","Go","Go_SevenGo",-0.483526053406195,87,2.44090908206522,0.263,39
5,1,0,"SevenGo","NoGo","NoGo_SevenGo",-0.469092439871681,88,0,0.276,40
5,1,0.253,"FiveGo","Go","Go_FiveGo",-0.454658826337168,89,2.40312052117582,0,25
5,1,0.267,"FiveGo","Go","Go_FiveGo",-0.440225212802655,90,2.42651126136458,0.253,26
5,1,0.337,"FiveGo","Go","Go_FiveGo",-0.425791599268141,91,2.52762990087134,0.267,27
5,1,0.303,"FiveGo","Go","Go_FiveGo",-0.411357985733628,92,2.4814426285023,0.337,28
5,1,0.293,"FiveGo","Go","Go_FiveGo",-0.396924372199115,93,2.46686762035411,0.303,29
5,1,0,"FiveGo","NoGo","NoGo_FiveGo",-0.382490758664602,94,0,0.293,30
5,1,0.277,"OneGo","Go","Go_OneGo",-0.368057145130088,95,2.44247976906445,0,9
5,0,0.219,"OneGo","NoGo","NoGo_OneGo",-0.353623531595575,96,2.34044411484012,0.277,10
5,1,0.302,"ThreeGo","Go","Go_ThreeGo",-0.339189918061062,97,2.48000694295715,0.219,17
5,1,0.284,"ThreeGo","Go","Go_ThreeGo",-0.324756304526549,98,2.45331834004704,0.302,18
5,1,0.33,"ThreeGo","Go","Go_ThreeGo",-0.310322690992035,99,2.51851393987789,0.284,19
5,1,0,"ThreeGo","NoGo","NoGo_ThreeGo",-0.295889077457522,100,0,0.33,20
5,1,0.299,"FiveGo","Go","Go_FiveGo",-0.281455463923009,101,2.47567118832443,0,31
5,1,0.329,"FiveGo","Go","Go_FiveGo",-0.267021850388496,102,2.51719589794997,0.299,32
5,1,0.31,"FiveGo","Go","Go_FiveGo",-0.252588236853982,103,2.49136169383427,0.329,33
5,1,0.292,"FiveGo","Go","Go_FiveGo",-0.238154623319469,104,2.46538285144842,0.31,34
5,1,0.306,"FiveGo","Go","Go_FiveGo",-0.223721009784956,105,2.48572142648158,0.292,35
5,1,0,"FiveGo","NoGo","NoGo_FiveGo",-0.209287396250442,106,0,0.306,36
5,1,0.299,"SevenGo","Go","Go_SevenGo",-0.194853782715929,107,2.47567118832443,0,41
5,1,0.289,"SevenGo","Go","Go_SevenGo",-0.180420169181416,108,2.46089784275655,0.299,42
5,1,0.303,"SevenGo","Go","Go_SevenGo",-0.165986555646903,109,2.4814426285023,0.289,43
5,1,0.285,"SevenGo","Go","Go_SevenGo",-0.151552942112389,110,2.45484486000851,0.303,44
5,1,0.29,"SevenGo","Go","Go_SevenGo",-0.137119328577876,111,2.46239799789896,0.285,45
5,1,0.368,"SevenGo","Go","Go_SevenGo",-0.122685715043363,112,2.56584781867352,0.29,46
5,1,0.35,"SevenGo","Go","Go_SevenGo",-0.10825210150885,113,2.54406804435028,0.368,47
5,1,0,"SevenGo","NoGo","NoGo_SevenGo",-0.0938184879743363,114,0,0.35,48
5,1,0.302,"OneGo","Go","Go_OneGo",-0.079384874439823,115,2.48000694295715,0,11
5,1,0,"OneGo","NoGo","NoGo_OneGo",-0.0649512609053097,116,0,0.302,12
5,1,0.216,"ThreeGo","Go","Go_ThreeGo",-0.0505176473707964,117,2.33445375115093,0,21
5,1,0.267,"ThreeGo","Go","Go_ThreeGo",-0.0216504203017699,119,2.42651126136458,0.014,23
5,1,0,"ThreeGo","NoGo","NoGo_ThreeGo",-0.00721680676725664,120,0,0.267,24
5,1,0.244,"FiveGo","Go","Go_FiveGo",0.00721680676725664,121,2.38738982633873,0,37
5,1,0.226,"FiveGo","Go","Go_FiveGo",0.0216504203017699,122,2.3541084391474,0.244,38
5,1,0.247,"FiveGo","Go","Go_FiveGo",0.0360840338362832,123,2.39269695325967,0.226,39
5,1,0.285,"FiveGo","Go","Go_FiveGo",0.0505176473707964,124,2.45484486000851,0.247,40
5,1,0.291,"FiveGo","Go","Go_FiveGo",0.0649512609053097,125,2.46389298898591,0.285,41
5,0,0.265,"FiveGo","NoGo","NoGo_FiveGo",0.079384874439823,126,2.42324587393681,0.291,42
5,1,0.388,"ThreeGo","Go","Go_ThreeGo",0.0938184879743363,127,2.58883172559421,0.265,25
5,1,0.37,"ThreeGo","Go","Go_ThreeGo",0.10825210150885,128,2.56820172406699,0.388,26
5,1,0.528,"ThreeGo","Go","Go_ThreeGo",0.122685715043363,129,2.72263392253381,0.37,27
5,1,0,"ThreeGo","NoGo","NoGo_ThreeGo",0.137119328577876,130,0,0.528,28
5,1,0.48,"OneGo","Go","Go_OneGo",0.151552942112389,131,2.68124123737559,0,13
5,1,0,"OneGo","NoGo","NoGo_OneGo",0.165986555646903,132,0,0.48,14
5,1,0.329,"SevenGo","Go","Go_SevenGo",0.180420169181416,133,2.51719589794997,0,49
5,1,0.424,"SevenGo","Go","Go_SevenGo",0.194853782715929,134,2.62736585659273,0.329,50
5,1,0.381,"SevenGo","Go","Go_SevenGo",0.209287396250442,135,2.58092497567562,0.424,51
5,1,0.419,"SevenGo","Go","Go_SevenGo",0.223721009784956,136,2.6222140229663,0.381,52
5,1,0.585,"SevenGo","Go","Go_SevenGo",0.238154623319469,137,2.76715586608218,0.419,53
5,1,0.359,"SevenGo","Go","Go_SevenGo",0.252588236853982,138,2.55509444857832,0.585,54
5,1,0.38,"SevenGo","Go","Go_SevenGo",0.267021850388496,139,2.57978359661681,0.359,55
5,1,0,"SevenGo","NoGo","NoGo_SevenGo",0.281455463923009,140,0,0.38,56
5,1,0.357,"FiveGo","Go","Go_FiveGo",0.295889077457522,141,2.55266821611219,0,43
5,1,0.339,"FiveGo","Go","Go_FiveGo",0.310322690992035,142,2.53019969820308,0.357,44
5,1,0.464,"FiveGo","Go","Go_FiveGo",0.324756304526549,143,2.66651798055488,0.339,45
5,1,0.35,"FiveGo","Go","Go_FiveGo",0.339189918061062,144,2.54406804435028,0.464,46
5,1,0.428,"FiveGo","Go","Go_FiveGo",0.353623531595575,145,2.63144376901317,0.35,47
5,1,0,"FiveGo","NoGo","NoGo_FiveGo",0.368057145130088,146,0,0.428,48
5,1,0.269,"ThreeGo","Go","Go_ThreeGo",0.382490758664602,147,2.42975228000241,0,29
5,1,0.579,"ThreeGo","Go","Go_ThreeGo",0.396924372199115,148,2.76267856372744,0.269,30
5,1,0.345,"ThreeGo","Go","Go_ThreeGo",0.411357985733628,149,2.53781909507327,0.579,31
5,1,0,"ThreeGo","NoGo","NoGo_ThreeGo",0.425791599268141,150,0,0.345,32
5,1,0.305,"OneGo","Go","Go_OneGo",0.440225212802655,151,2.48429983934679,0,15
5,1,0,"OneGo","NoGo","NoGo_OneGo",0.454658826337168,152,0,0.305,16
5,1,0.315,"SevenGo","Go","Go_SevenGo",0.469092439871681,153,2.4983105537896,0,57
5,1,0.321,"SevenGo","Go","Go_SevenGo",0.483526053406195,154,2.50650503240487,0.315,58
5,1,0.311,"SevenGo","Go","Go_SevenGo",0.497959666940708,155,2.49276038902684,0.321,59
5,1,0.388,"SevenGo","Go","Go_SevenGo",0.512393280475221,156,2.58883172559421,0.311,60
5,1,0.33,"SevenGo","Go","Go_SevenGo",0.526826894009734,157,2.51851393987789,0.388,61
5,1,0.576,"SevenGo","Go","Go_SevenGo",0.541260507544248,158,2.76042248342321,0.33,62
5,1,0.341,"SevenGo","Go","Go_SevenGo",0.555694121078761,159,2.5327543789925,0.576,63
5,1,0,"SevenGo","NoGo","NoGo_SevenGo",0.570127734613274,160,0,0.341,64
5,1,0.393,"FiveGo","Go","Go_FiveGo",0.584561348147787,161,2.59439255037543,0,49
5,1,0.312,"FiveGo","Go","Go_FiveGo",0.598994961682301,162,2.49415459401844,0.393,50
5,1,0.301,"FiveGo","Go","Go_FiveGo",0.613428575216814,163,2.47856649559384,0.312,51
5,1,0.307,"FiveGo","Go","Go_FiveGo",0.627862188751327,164,2.48713837547719,0.301,52
5,1,0.297,"FiveGo","Go","Go_FiveGo",0.64229580228584,165,2.47275644931721,0.307,53
5,1,0,"FiveGo","NoGo","NoGo_FiveGo",0.656729415820354,166,0,0.297,54
5,1,0.305,"SevenGo","Go","Go_SevenGo",0.671163029354867,167,2.48429983934679,0,65
5,1,0.255,"SevenGo","Go","Go_SevenGo",0.68559664288938,168,2.40654018043396,0.305,66
5,1,0.349,"SevenGo","Go","Go_SevenGo",0.700030256423894,169,2.54282542695918,0.255,67
5,1,0.443,"SevenGo","Go","Go_SevenGo",0.714463869958407,170,2.64640372622307,0.349,68
5,1,0.392,"SevenGo","Go","Go_SevenGo",0.72889748349292,171,2.59328606702046,0.443,69
5,1,0.502,"SevenGo","Go","Go_SevenGo",0.743331097027433,172,2.70070371714502,0.392,70
5,1,0.348,"SevenGo","Go","Go_SevenGo",0.757764710561947,173,2.54157924394658,0.502,71
5,1,0,"SevenGo","NoGo","NoGo_SevenGo",0.77219832409646,174,0,0.348,72
5,1,0.341,"ThreeGo","Go","Go_ThreeGo",0.786631937630973,175,2.5327543789925,0,33
5,1,0.395,"ThreeGo","Go","Go_ThreeGo",0.801065551165487,176,2.59659709562646,0.341,34
5,1,0.377,"ThreeGo","Go","Go_ThreeGo",0.8154991647,177,2.57634135020579,0.395,35
5,1,0,"ThreeGo","NoGo","NoGo_ThreeGo",0.829932778234513,178,0,0.377,36
5,1,0.393,"OneGo","Go","Go_OneGo",0.844366391769026,179,2.59439255037543,0,17
5,1,0,"OneGo","NoGo","NoGo_OneGo",0.85880000530354,180,0,0.393,18
5,1,0.299,"OneGo","Go","Go_OneGo",0.873233618838053,181,2.47567118832443,0,19
5,1,0,"OneGo","NoGo","NoGo_OneGo",0.887667232372566,182,0,0.299,20
5,1,0.291,"FiveGo","Go","Go_FiveGo",0.902100845907079,183,2.46389298898591,0,55
5,1,0.353,"FiveGo","Go","Go_FiveGo",0.916534459441593,184,2.54777470538782,0.291,56
5,1,0.343,"FiveGo","Go","Go_FiveGo",0.930968072976106,185,2.53529412004277,0.353,57
5,1,0.317,"FiveGo","Go","Go_FiveGo",0.945401686510619,186,2.50105926221775,0.343,58
5,1,0.314,"FiveGo","Go","Go_FiveGo",0.959835300045133,187,2.49692964807321,0.317,59
5,1,0,"FiveGo","NoGo","NoGo_FiveGo",0.974268913579646,188,0,0.314,60
5,1,0.315,"ThreeGo","Go","Go_ThreeGo",0.988702527114159,189,2.4983105537896,0,37
5,1,0.37,"ThreeGo","Go","Go_ThreeGo",1.00313614064867,190,2.56820172406699,0.315,38
5,1,0.343,"ThreeGo","Go","Go_ThreeGo",1.01756975418319,191,2.53529412004277,0.37,39
5,1,0,"ThreeGo","NoGo","NoGo_ThreeGo",1.0320033677177,192,0,0.343,40
5,1,0.312,"SevenGo","Go","Go_SevenGo",1.04643698125221,193,2.49415459401844,0,73
5,1,0.334,"SevenGo","Go","Go_SevenGo",1.06087059478673,194,2.52374646681156,0.312,74
5,1,0.331,"SevenGo","Go","Go_SevenGo",1.07530420832124,195,2.51982799377572,0.334,75
5,1,0.265,"SevenGo","Go","Go_SevenGo",1.08973782185575,196,2.42324587393681,0.331,76
5,1,0.319,"SevenGo","Go","Go_SevenGo",1.10417143539027,197,2.50379068305718,0.265,77
5,1,0.333,"SevenGo","Go","Go_SevenGo",1.11860504892478,198,2.52244423350632,0.319,78
5,1,0.354,"SevenGo","Go","Go_SevenGo",1.13303866245929,199,2.54900326202579,0.333,79
5,1,0,"SevenGo","NoGo","NoGo_SevenGo",1.1474722759938,200,0,0.354,80
5,1,0.364,"SevenGo","Go","Go_SevenGo",1.16190588952832,201,2.56110138364906,0,81
5,1,0.386,"SevenGo","Go","Go_SevenGo",1.17633950306283,202,2.58658730467176,0.364,82
5,1,0.383,"SevenGo","Go","Go_SevenGo",1.19077311659734,203,2.58319877396862,0.386,83
5,1,0.349,"SevenGo","Go","Go_SevenGo",1.20520673013186,204,2.54282542695918,0.383,84
5,1,0.403,"SevenGo","Go","Go_SevenGo",1.21964034366637,205,2.60530504614111,0.349,85
5,1,0.353,"SevenGo","Go","Go_SevenGo",1.23407395720088,206,2.54777470538782,0.403,86
5,1,0.334,"SevenGo","Go","Go_SevenGo",1.2485075707354,207,2.52374646681156,0.353,87
5,1,0,"SevenGo","NoGo","NoGo_SevenGo",1.26294118426991,208,0,0.334,88
5,1,0.271,"ThreeGo","Go","Go_ThreeGo",1.27737479780442,209,2.43296929087441,0,41
5,1,0.341,"ThreeGo","Go","Go_ThreeGo",1.29180841133894,210,2.5327543789925,0.271,42
5,1,0.346,"ThreeGo","Go","Go_ThreeGo",1.30624202487345,211,2.53907609879278,0.341,43
5,1,0,"ThreeGo","NoGo","NoGo_ThreeGo",1.32067563840796,212,0,0.346,44
5,1,0.444,"OneGo","Go","Go_OneGo",1.33510925194248,213,2.64738297011462,0,21
5,1,0,"OneGo","NoGo","NoGo_OneGo",1.34954286547699,214,0,0.444,22
5,1,0.308,"FiveGo","Go","Go_FiveGo",1.3639764790115,215,2.48855071650044,0,61
5,1,0.29,"FiveGo","Go","Go_FiveGo",1.37841009254602,216,2.46239799789896,0.308,62
5,1,0.336,"FiveGo","Go","Go_FiveGo",1.39284370608053,217,2.52633927738984,0.29,63
5,1,0.358,"FiveGo","Go","Go_FiveGo",1.40727731961504,218,2.55388302664387,0.336,64
5,1,0.363,"FiveGo","Go","Go_FiveGo",1.42171093314956,219,2.55990662503611,0.358,65
5,1,0,"FiveGo","NoGo","NoGo_FiveGo",1.43614454668407,220,0,0.363,66
5,1,0.429,"FiveGo","Go","Go_FiveGo",1.45057816021858,221,2.63245729218472,0,67
5,1,0.411,"FiveGo","Go","Go_FiveGo",1.4650117737531,222,2.61384182187607,0.429,68
5,1,0.32,"FiveGo","Go","Go_FiveGo",1.47944538728761,223,2.50514997831991,0.411,69
5,1,0.35,"FiveGo","Go","Go_FiveGo",1.49387900082212,224,2.54406804435028,0.32,70
5,1,0.468,"FiveGo","Go","Go_FiveGo",1.50831261435664,225,2.67024585307412,0.35,71
5,1,0,"FiveGo","NoGo","NoGo_FiveGo",1.52274622789115,226,0,0.468,72
5,1,0.348,"OneGo","Go","Go_OneGo",1.53717984142566,227,2.54157924394658,0,23
5,1,0,"OneGo","NoGo","NoGo_OneGo",1.55161345496018,228,0,0.348,24
5,1,0.302,"SevenGo","Go","Go_SevenGo",1.56604706849469,229,2.48000694295715,0,89
5,1,0.324,"SevenGo","Go","Go_SevenGo",1.5804806820292,230,2.51054501020661,0.302,90
5,1,0.329,"SevenGo","Go","Go_SevenGo",1.59491429556372,231,2.51719589794997,0.324,91
5,1,0.383,"SevenGo","Go","Go_SevenGo",1.60934790909823,232,2.58319877396862,0.329,92
5,1,0.349,"SevenGo","Go","Go_SevenGo",1.62378152263274,233,2.54282542695918,0.383,93
5,1,0.379,"SevenGo","Go","Go_SevenGo",1.63821513616726,234,2.57863920996807,0.349,94
5,1,0.424,"SevenGo","Go","Go_SevenGo",1.65264874970177,235,2.62736585659273,0.379,95
5,1,0,"SevenGo","NoGo","NoGo_SevenGo",1.66708236323628,236,0,0.424,96
5,1,0.305,"ThreeGo","Go","Go_ThreeGo",1.6815159767708,237,2.48429983934679,0,45
5,1,0.327,"ThreeGo","Go","Go_ThreeGo",1.69594959030531,238,2.51454775266029,0.305,46
5,1,0.317,"ThreeGo","Go","Go_ThreeGo",1.71038320383982,239,2.50105926221775,0.327,47
5,1,0,"ThreeGo","NoGo","NoGo_ThreeGo",1.72481681737434,240,0,0.317,48
6,1,0.286,"ThreeGo","Go","Go_ThreeGo",-1.72481681737434,1,2.45636603312904,0.261435146443515,1
6,1,0.37,"ThreeGo","Go","Go_ThreeGo",-1.71038320383982,2,2.56820172406699,0.286,2
6,1,0.308,"ThreeGo","Go","Go_ThreeGo",-1.69594959030531,3,2.48855071650044,0.37,3
6,1,0,"ThreeGo","NoGo","NoGo_ThreeGo",-1.6815159767708,4,0,0.308,4
6,1,0.403,"FiveGo","Go","Go_FiveGo",-1.66708236323628,5,2.60530504614111,0,1
6,1,0.238,"FiveGo","Go","Go_FiveGo",-1.65264874970177,6,2.37657695705651,0.403,2
6,1,0.305,"FiveGo","Go","Go_FiveGo",-1.63821513616726,7,2.48429983934679,0.238,3
6,1,0.292,"FiveGo","Go","Go_FiveGo",-1.62378152263274,8,2.46538285144842,0.305,4
6,1,0.271,"FiveGo","Go","Go_FiveGo",-1.60934790909823,9,2.43296929087441,0.292,5
6,0,0.267,"FiveGo","NoGo","NoGo_FiveGo",-1.59491429556372,10,2.42651126136458,0.271,6
6,1,0.293,"SevenGo","Go","Go_SevenGo",-1.5804806820292,11,2.46686762035411,0.267,1
6,1,0.441,"SevenGo","Go","Go_SevenGo",-1.56604706849469,12,2.64443858946784,0.293,2
6,1,0.38,"SevenGo","Go","Go_SevenGo",-1.55161345496018,13,2.57978359661681,0.441,3
6,1,0.287,"SevenGo","Go","Go_SevenGo",-1.53717984142566,14,2.45788189673399,0.38,4
6,1,0.322,"SevenGo","Go","Go_SevenGo",-1.52274622789115,15,2.50785587169583,0.287,5
6,1,0.301,"SevenGo","Go","Go_SevenGo",-1.50831261435664,16,2.47856649559384,0.322,6
6,1,0.312,"SevenGo","Go","Go_SevenGo",-1.49387900082212,17,2.49415459401844,0.301,7
6,1,0,"SevenGo","NoGo","NoGo_SevenGo",-1.47944538728761,18,0,0.312,8
6,1,0.294,"OneGo","Go","Go_OneGo",-1.4650117737531,19,2.46834733041216,0,1
6,1,0,"OneGo","NoGo","NoGo_OneGo",-1.45057816021858,20,0,0.294,2
6,1,0.301,"ThreeGo","Go","Go_ThreeGo",-1.43614454668407,21,2.47856649559384,0,5
6,1,0.36,"ThreeGo","Go","Go_ThreeGo",-1.42171093314956,22,2.55630250076729,0.301,6
6,1,0.475,"ThreeGo","Go","Go_ThreeGo",-1.40727731961504,23,2.67669360962487,0.36,7
6,1,0,"ThreeGo","NoGo","NoGo_ThreeGo",-1.39284370608053,24,0,0.475,8
6,1,0.297,"SevenGo","Go","Go_SevenGo",-1.37841009254602,25,2.47275644931721,0,9
6,1,0.557,"SevenGo","Go","Go_SevenGo",-1.3639764790115,26,2.74585519517373,0.297,10
6,1,0.336,"SevenGo","Go","Go_SevenGo",-1.34954286547699,27,2.52633927738984,0.557,11
6,1,0.466,"SevenGo","Go","Go_SevenGo",-1.33510925194248,28,2.66838591669,0.336,12
6,1,0.366,"SevenGo","Go","Go_SevenGo",-1.32067563840796,29,2.56348108539441,0.466,13
6,1,0.257,"SevenGo","Go","Go_SevenGo",-1.30624202487345,30,2.40993312333129,0.366,14
6,1,0.276,"SevenGo","Go","Go_SevenGo",-1.29180841133894,31,2.44090908206522,0.257,15
6,1,0,"SevenGo","NoGo","NoGo_SevenGo",-1.27737479780442,32,0,0.276,16
6,1,0.298,"FiveGo","Go","Go_FiveGo",-1.26294118426991,33,2.47421626407626,0,7
6,1,0.334,"FiveGo","Go","Go_FiveGo",-1.2485075707354,34,2.52374646681156,0.298,8
6,1,0.305,"FiveGo","Go","Go_FiveGo",-1.23407395720088,35,2.48429983934679,0.334,9
6,1,0.291,"FiveGo","Go","Go_FiveGo",-1.21964034366637,36,2.46389298898591,0.305,10
6,1,0.359,"FiveGo","Go","Go_FiveGo",-1.20520673013186,37,2.55509444857832,0.291,11
6,1,0,"FiveGo","NoGo","NoGo_FiveGo",-1.19077311659734,38,0,0.359,12
6,1,0.268,"OneGo","Go","Go_OneGo",-1.17633950306283,39,2.42813479402879,0,3
6,1,0,"OneGo","NoGo","NoGo_OneGo",-1.16190588952832,40,0,0.268,4
6,1,0.307,"FiveGo","Go","Go_FiveGo",-1.1474722759938,41,2.48713837547719,0,13
6,1,0.295,"FiveGo","Go","Go_FiveGo",-1.13303866245929,42,2.46982201597816,0.307,14
6,1,0.353,"FiveGo","Go","Go_FiveGo",-1.11860504892478,43,2.54777470538782,0.295,15
6,1,0.428,"FiveGo","Go","Go_FiveGo",-1.10417143539027,44,2.63144376901317,0.353,16
