subj_idx,response,rt,cond,stim,trial_z,rt_log_trim_grp,prev_rt,prev_rt_z,prev_error,id,since_nogo,since_nogo_z,block_trial_z,DISINH,ANTAG
1,1,NA,ThreeGo,Go,-1.724816817,NA,NA,NA,NA,1,0,-1.212653597,-1.212653597,-1.338,-1.221
1,1,486,ThreeGo,Go,-1.710383204,2.686636269,NA,NA,0,1,1,-0.727592158,-0.727592158,-1.338,-1.221
1,1,380,ThreeGo,Go,-1.69594959,2.579783597,2.686636269,1.07817041,0,1,2,-0.242530719,-0.242530719,-1.338,-1.221
1,1,0,ThreeGo,NoGo,-1.681515977,0,2.579783597,-0.200777135,0,1,3,0.242530719,0.242530719,-1.338,-1.221
1,1,533,FiveGo,Go,-1.667082363,2.726727209,NA,NA,0,1,0,-1.212653597,-1.212653597,-1.338,-1.221
1,1,467,FiveGo,Go,-1.65264875,2.669316881,2.726727209,1.558029338,0,1,1,-0.727592158,-0.727592158,-1.338,-1.221
1,1,497,FiveGo,Go,-1.638215136,2.696356389,2.669316881,0.870870123,0,1,2,-0.242530719,-0.242530719,-1.338,-1.221
1,1,422,FiveGo,Go,-1.623781523,2.625312451,2.696356389,1.194513058,0,1,3,0.242530719,0.242530719,-1.338,-1.221
1,1,468,FiveGo,Go,-1.609347909,2.670245853,2.625312451,0.344169613,0,1,4,0.727592158,0.727592158,-1.338,-1.221
1,1,0,FiveGo,NoGo,-1.594914296,0,2.670245853,0.881989238,0,1,5,1.212653597,1.212653597,-1.338,-1.221
1,1,389,OneGo,Go,-1.580480682,2.589949601,NA,NA,0,1,0,-1.212653597,-1.212653597,-1.338,-1.221
1,1,0,OneGo,NoGo,-1.566047068,0,2.589949601,-0.07909757,0,1,1,-0.727592158,-0.727592158,-1.338,-1.221
1,1,510,SevenGo,Go,-1.551613455,2.707570176,NA,NA,0,1,0,-1.212653597,-1.212653597,-1.338,-1.221
1,1,484,SevenGo,Go,-1.537179841,2.684845362,2.707570176,1.328733808,0,1,1,-0.727592158,-0.727592158,-1.338,-1.221
1,1,426,SevenGo,Go,-1.522746228,2.629409599,2.684845362,1.056734569,0,1,2,-0.242530719,-0.242530719,-1.338,-1.221
1,1,431,SevenGo,Go,-1.508312614,2.63447727,2.629409599,0.393209449,0,1,3,0.242530719,0.242530719,-1.338,-1.221
1,1,445,SevenGo,Go,-1.493879001,2.648360011,2.63447727,0.453865727,0,1,4,0.727592158,0.727592158,-1.338,-1.221
1,1,507,SevenGo,Go,-1.479445387,2.705007959,2.648360011,0.620031878,0,1,5,1.212653597,1.212653597,-1.338,-1.221
1,1,457,SevenGo,Go,-1.465011774,2.6599162,2.705007959,1.298065966,0,1,6,1.697715035,1.697715035,-1.338,-1.221
1,1,0,SevenGo,NoGo,-1.45057816,0,2.6599162,0.758350923,0,1,7,2.182776474,2.182776474,-1.338,-1.221
1,1,569,SevenGo,Go,-1.436144547,2.755112266,NA,NA,0,1,0,-1.212653597,-1.212653597,-1.338,-1.221
1,1,351,SevenGo,Go,-1.421710933,2.545307116,2.755112266,1.897777503,0,1,1,-0.727592158,-0.727592158,-1.338,-1.221
1,1,333,SevenGo,Go,-1.40727732,2.522444234,2.545307116,-0.61343513,0,1,2,-0.242530719,-0.242530719,-1.338,-1.221
1,1,434,SevenGo,Go,-1.392843706,2.63748973,2.522444234,-0.887086947,0,1,3,0.242530719,0.242530719,-1.338,-1.221
1,1,480,SevenGo,Go,-1.378410093,2.681241237,2.63748973,0.48992264,0,1,4,0.727592158,0.727592158,-1.338,-1.221
1,1,374,SevenGo,Go,-1.363976479,2.572871602,2.681241237,1.013595864,0,1,5,1.212653597,1.212653597,-1.338,-1.221
1,1,420,SevenGo,Go,-1.349542865,2.62324929,2.572871602,-0.283508602,0,1,6,1.697715035,1.697715035,-1.338,-1.221
1,0,322,SevenGo,NoGo,-1.335109252,2.507855872,2.62324929,0.319475105,0,1,7,2.182776474,2.182776474,-1.338,-1.221
1,1,549,OneGo,Go,-1.320675638,2.739572344,2.507855872,-1.06169886,1,1,0,-1.212653597,-1.212653597,-1.338,-1.221
1,1,0,OneGo,NoGo,-1.306242025,0,2.739572344,1.711776119,0,1,1,-0.727592158,-0.727592158,-1.338,-1.221
1,1,510,ThreeGo,Go,-1.291808411,2.707570176,NA,NA,0,1,0,-1.212653597,-1.212653597,-1.338,-1.221
1,1,435,ThreeGo,Go,-1.277374798,2.638489257,2.707570176,1.328733808,0,1,1,-0.727592158,-0.727592158,-1.338,-1.221
1,1,465,ThreeGo,Go,-1.262941184,2.667452953,2.638489257,0.501886245,0,1,2,-0.242530719,-0.242530719,-1.338,-1.221
1,1,0,ThreeGo,NoGo,-1.248507571,0,2.667452953,0.848560286,0,1,3,0.242530719,0.242530719,-1.338,-1.221
1,1,523,FiveGo,Go,-1.234073957,2.718501689,NA,NA,0,1,0,-1.212653597,-1.212653597,-1.338,-1.221
1,1,344,FiveGo,Go,-1.219640344,2.536558443,2.718501689,1.459575939,0,1,1,-0.727592158,-0.727592158,-1.338,-1.221
1,1,334,FiveGo,Go,-1.20520673,2.523746467,2.536558443,-0.718150293,0,1,2,-0.242530719,-0.242530719,-1.338,-1.221
1,1,372,FiveGo,Go,-1.190773117,2.57054294,2.523746467,-0.871500177,0,1,3,0.242530719,0.242530719,-1.338,-1.221
1,1,362,FiveGo,Go,-1.176339503,2.558708571,2.57054294,-0.311380969,0,1,4,0.727592158,0.727592158,-1.338,-1.221
1,1,0,FiveGo,NoGo,-1.16190589,0,2.558708571,-0.453029627,0,1,5,1.212653597,1.212653597,-1.338,-1.221
1,1,418,OneGo,Go,-1.147472276,2.621176282,NA,NA,0,1,0,-1.212653597,-1.212653597,-1.338,-1.221
1,1,0,OneGo,NoGo,-1.133038662,0,2.621176282,0.294662724,0,1,1,-0.727592158,-0.727592158,-1.338,-1.221
1,1,404,ThreeGo,Go,-1.118605049,2.606381365,NA,NA,0,1,0,-1.212653597,-1.212653597,-1.338,-1.221
1,1,346,ThreeGo,Go,-1.104171435,2.539076099,2.606381365,0.117578502,0,1,1,-0.727592158,-0.727592158,-1.338,-1.221
1,1,415,ThreeGo,Go,-1.089737822,2.618048097,2.539076099,-0.688015808,0,1,2,-0.242530719,-0.242530719,-1.338,-1.221
1,1,0,ThreeGo,NoGo,-1.075304208,0,2.618048097,0.25722066,0,1,3,0.242530719,0.242530719,-1.338,-1.221
1,1,336,SevenGo,Go,-1.060870595,2.526339277,NA,NA,0,1,0,-1.212653597,-1.212653597,-1.338,-1.221
1,1,278,SevenGo,Go,-1.046436981,2.444044796,2.526339277,-0.84046615,0,1,1,-0.727592158,-0.727592158,-1.338,-1.221
1,1,411,SevenGo,Go,-1.032003368,2.613841822,2.444044796,-1.825470291,0,1,2,-0.242530719,-0.242530719,-1.338,-1.221
1,1,433,SevenGo,Go,-1.017569754,2.636487896,2.613841822,0.206874658,0,1,3,0.242530719,0.242530719,-1.338,-1.221
1,1,359,SevenGo,Go,-1.003136141,2.555094449,2.636487896,0.477931437,0,1,4,0.727592158,0.727592158,-1.338,-1.221
1,1,357,SevenGo,Go,-0.988702527,2.552668216,2.555094449,-0.496287996,0,1,5,1.212653597,1.212653597,-1.338,-1.221
1,1,354,SevenGo,Go,-0.974268914,2.549003262,2.552668216,-0.525328206,0,1,6,1.697715035,1.697715035,-1.338,-1.221
1,1,0,SevenGo,NoGo,-0.9598353,0,2.549003262,-0.569194999,0,1,7,2.182776474,2.182776474,-1.338,-1.221
1,1,436,FiveGo,Go,-0.945401687,2.639486489,NA,NA,0,1,0,-1.212653597,-1.212653597,-1.338,-1.221
1,1,401,FiveGo,Go,-0.930968073,2.603144373,2.639486489,0.513822379,0,1,1,-0.727592158,-0.727592158,-1.338,-1.221
1,1,NA,FiveGo,Go,-0.916534459,NA,2.603144373,0.078834094,0,1,2,-0.242530719,-0.242530719,-1.338,-1.221
1,1,477,FiveGo,Go,-0.902100846,2.678518379,NA,NA,0,1,3,0.242530719,0.242530719,-1.338,-1.221
1,1,379,FiveGo,Go,-0.887667232,2.57863921,2.678518379,0.981005261,0,1,4,0.727592158,0.727592158,-1.338,-1.221
1,1,0,FiveGo,NoGo,-0.873233619,0,2.57863921,-0.214474598,0,1,5,1.212653597,1.212653597,-1.338,-1.221
1,1,331,FiveGo,Go,-0.858800005,2.519827994,NA,NA,0,1,0,-1.212653597,-1.212653597,-1.338,-1.221
1,1,273,FiveGo,Go,-0.844366392,2.436162647,2.519827994,-0.918401404,0,1,1,-0.727592158,-0.727592158,-1.338,-1.221
1,1,312,FiveGo,Go,-0.829932778,2.494154594,2.436162647,-1.919813789,0,1,2,-0.242530719,-0.242530719,-1.338,-1.221
1,1,262,FiveGo,Go,-0.815499165,2.418301291,2.494154594,-1.225693031,0,1,3,0.242530719,0.242530719,-1.338,-1.221
1,1,331,FiveGo,Go,-0.801065551,2.519827994,2.418301291,-2.133601021,0,1,4,0.727592158,0.727592158,-1.338,-1.221
1,1,0,FiveGo,NoGo,-0.786631938,0,2.519827994,-0.918401404,0,1,5,1.212653597,1.212653597,-1.338,-1.221
1,1,540,OneGo,Go,-0.772198324,2.73239376,NA,NA,0,1,0,-1.212653597,-1.212653597,-1.338,-1.221
1,1,0,OneGo,NoGo,-0.757764711,0,2.73239376,1.625853764,0,1,1,-0.727592158,-0.727592158,-1.338,-1.221
1,1,460,SevenGo,Go,-0.743331097,2.662757832,NA,NA,0,1,0,-1.212653597,-1.212653597,-1.338,-1.221
1,1,410,SevenGo,Go,-0.728897483,2.612783857,2.662757832,0.792363154,0,1,1,-0.727592158,-0.727592158,-1.338,-1.221
1,1,441,SevenGo,Go,-0.71446387,2.644438589,2.612783857,0.194211596,0,1,2,-0.242530719,-0.242530719,-1.338,-1.221
1,1,431,SevenGo,Go,-0.700030256,2.63447727,2.644438589,0.57309536,0,1,3,0.242530719,0.242530719,-1.338,-1.221
1,1,492,SevenGo,Go,-0.685596643,2.691965103,2.63447727,0.453865727,0,1,4,0.727592158,0.727592158,-1.338,-1.221
1,1,466,SevenGo,Go,-0.671163029,2.668385917,2.691965103,1.14195261,0,1,5,1.212653597,1.212653597,-1.338,-1.221
1,1,400,SevenGo,Go,-0.656729416,2.602059991,2.668385917,0.859727173,0,1,6,1.697715035,1.697715035,-1.338,-1.221
1,0,294,SevenGo,NoGo,-0.642295802,2.46834733,2.602059991,0.065854851,0,1,7,2.182776474,2.182776474,-1.338,-1.221
1,1,568,ThreeGo,Go,-0.627862189,2.754348336,2.46834733,-1.534586909,1,1,0,-1.212653597,-1.212653597,-1.338,-1.221
1,1,NA,ThreeGo,Go,-0.613428575,NA,2.754348336,1.888633817,0,1,1,-0.727592158,-0.727592158,-1.338,-1.221
1,1,508,ThreeGo,Go,-0.598994962,2.705863712,NA,NA,0,1,2,-0.242530719,-0.242530719,-1.338,-1.221
1,1,0,ThreeGo,NoGo,-0.584561348,0,2.705863712,1.308308697,0,1,3,0.242530719,0.242530719,-1.338,-1.221
1,1,NA,ThreeGo,Go,-0.570127735,NA,NA,NA,0,1,0,-1.212653597,-1.212653597,-1.338,-1.221
1,1,462,ThreeGo,Go,-0.555694121,2.664641976,NA,NA,0,1,1,-0.727592158,-0.727592158,-1.338,-1.221
1,1,532,ThreeGo,Go,-0.541260508,2.725911632,2.664641976,0.814914964,0,1,2,-0.242530719,-0.242530719,-1.338,-1.221
1,1,0,ThreeGo,NoGo,-0.526826894,0,2.725911632,1.548267487,0,1,3,0.242530719,0.242530719,-1.338,-1.221
1,1,500,OneGo,Go,-0.51239328,2.698970004,NA,NA,0,1,0,-1.212653597,-1.212653597,-1.338,-1.221
1,1,0,OneGo,NoGo,-0.497959667,0,2.698970004,1.225796106,0,1,1,-0.727592158,-0.727592158,-1.338,-1.221
1,1,502,FiveGo,Go,-0.483526053,2.700703717,NA,NA,0,1,0,-1.212653597,-1.212653597,-1.338,-1.221
1,1,NA,FiveGo,Go,-0.46909244,NA,2.700703717,1.246547367,0,1,1,-0.727592158,-0.727592158,-1.338,-1.221
1,1,378,FiveGo,Go,-0.454658826,2.5774918,NA,NA,0,1,2,-0.242530719,-0.242530719,-1.338,-1.221
1,1,375,FiveGo,Go,-0.440225213,2.574031268,2.5774918,-0.228208249,0,1,3,0.242530719,0.242530719,-1.338,-1.221
1,1,429,FiveGo,Go,-0.425791599,2.632457292,2.574031268,-0.269628262,0,1,4,0.727592158,0.727592158,-1.338,-1.221
1,1,0,FiveGo,NoGo,-0.411357986,0,2.632457292,0.429688083,0,1,5,1.212653597,1.212653597,-1.338,-1.221
1,1,254,SevenGo,Go,-0.396924372,2.404833717,NA,NA,0,1,0,-1.212653597,-1.212653597,-1.338,-1.221
1,1,379,SevenGo,Go,-0.382490759,2.57863921,2.404833717,-2.29479794,0,1,1,-0.727592158,-0.727592158,-1.338,-1.221
1,1,409,SevenGo,Go,-0.368057145,2.611723308,2.57863921,-0.214474598,0,1,2,-0.242530719,-0.242530719,-1.338,-1.221
1,1,343,SevenGo,Go,-0.353623532,2.53529412,2.611723308,0.181517612,0,1,3,0.242530719,0.242530719,-1.338,-1.221
1,1,421,SevenGo,Go,-0.339189918,2.624282096,2.53529412,-0.733283299,0,1,4,0.727592158,0.727592158,-1.338,-1.221
1,1,483,SevenGo,Go,-0.324756305,2.683947131,2.624282096,0.331837023,0,1,5,1.212653597,1.212653597,-1.338,-1.221
1,1,339,SevenGo,Go,-0.310322691,2.530199698,2.683947131,1.045983409,0,1,6,1.697715035,1.697715035,-1.338,-1.221
1,1,0,SevenGo,NoGo,-0.295889077,0,2.530199698,-0.794259765,0,1,7,2.182776474,2.182776474,-1.338,-1.221
1,1,474,OneGo,Go,-0.281455464,2.675778342,NA,NA,0,1,0,-1.212653597,-1.212653597,-1.338,-1.221
1,1,0,OneGo,NoGo,-0.26702185,0,2.675778342,0.948209039,0,1,1,-0.727592158,-0.727592158,-1.338,-1.221
1,1,458,SevenGo,Go,-0.252588237,2.660865478,NA,NA,0,1,0,-1.212653597,-1.212653597,-1.338,-1.221
1,1,NA,SevenGo,Go,-0.238154623,NA,2.660865478,0.769713079,0,1,1,-0.727592158,-0.727592158,-1.338,-1.221
1,1,438,SevenGo,Go,-0.22372101,2.641474111,NA,NA,0,1,2,-0.242530719,-0.242530719,-1.338,-1.221
1,1,499,SevenGo,Go,-0.209287396,2.698100546,2.641474111,0.537612737,0,1,3,0.242530719,0.242530719,-1.338,-1.221
1,1,338,SevenGo,Go,-0.194853783,2.5289167,2.698100546,1.215389327,0,1,4,0.727592158,0.727592158,-1.338,-1.221
1,1,416,SevenGo,Go,-0.180420169,2.619093331,2.5289167,-0.809616302,0,1,5,1.212653597,1.212653597,-1.338,-1.221
1,1,398,SevenGo,Go,-0.165986556,2.599883072,2.619093331,0.269731337,0,1,6,1.697715035,1.697715035,-1.338,-1.221
1,1,0,SevenGo,NoGo,-0.151552942,0,2.599883072,0.039798736,0,1,7,2.182776474,2.182776474,-1.338,-1.221
1,1,342,FiveGo,Go,-0.137119329,2.534026106,NA,NA,0,1,0,-1.212653597,-1.212653597,-1.338,-1.221
1,1,292,FiveGo,Go,-0.122685715,2.465382851,2.534026106,-0.74846049,0,1,1,-0.727592158,-0.727592158,-1.338,-1.221
1,1,330,FiveGo,Go,-0.108252102,2.51851394,2.465382851,-1.570069532,0,1,2,-0.242530719,-0.242530719,-1.338,-1.221
1,1,279,FiveGo,Go,-0.093818488,2.445604203,2.51851394,-0.934129658,0,1,3,0.242530719,0.242530719,-1.338,-1.221
1,1,293,FiveGo,Go,-0.079384874,2.46686762,2.445604203,-1.806805337,0,1,4,0.727592158,0.727592158,-1.338,-1.221
1,0,339,FiveGo,NoGo,-0.064951261,2.530199698,2.46686762,-1.552297945,0,1,5,1.212653597,1.212653597,-1.338,-1.221
1,1,375,ThreeGo,Go,-0.050517647,2.574031268,2.530199698,-0.794259765,1,1,0,-1.212653597,-1.212653597,-1.338,-1.221
1,1,348,ThreeGo,Go,-0.036084034,2.541579244,2.574031268,-0.269628262,0,1,1,-0.727592158,-0.727592158,-1.338,-1.221
1,1,490,ThreeGo,Go,-0.02165042,2.69019608,2.541579244,-0.65805501,0,1,2,-0.242530719,-0.242530719,-1.338,-1.221
1,1,0,ThreeGo,NoGo,-0.007216807,0,2.69019608,1.120778714,0,1,3,0.242530719,0.242530719,-1.338,-1.221
1,1,259,OneGo,Go,0.007216807,2.413299764,NA,NA,0,1,0,-1.212653597,-1.212653597,-1.338,-1.221
1,0,256,OneGo,NoGo,0.02165042,2.408239965,2.413299764,-2.193465607,0,1,1,-0.727592158,-0.727592158,-1.338,-1.221
1,1,379,ThreeGo,Go,0.036084034,2.57863921,2.408239965,-2.254027659,1,1,0,-1.212653597,-1.212653597,-1.338,-1.221
1,1,505,ThreeGo,Go,0.050517647,2.703291378,2.57863921,-0.214474598,0,1,1,-0.727592158,-0.727592158,-1.338,-1.221
1,1,416,ThreeGo,Go,0.064951261,2.619093331,2.703291378,1.277519757,0,1,2,-0.242530719,-0.242530719,-1.338,-1.221
1,1,0,ThreeGo,NoGo,0.079384874,0,2.619093331,0.269731337,0,1,3,0.242530719,0.242530719,-1.338,-1.221
1,1,496,SevenGo,Go,0.093818488,2.695481676,NA,NA,0,1,0,-1.212653597,-1.212653597,-1.338,-1.221
1,1,334,SevenGo,Go,0.108252102,2.523746467,2.695481676,1.184043399,0,1,1,-0.727592158,-0.727592158,-1.338,-1.221
1,1,316,SevenGo,Go,0.122685715,2.499687083,2.523746467,-0.871500177,0,1,2,-0.242530719,-0.242530719,-1.338,-1.221
1,1,337,SevenGo,Go,0.137119329,2.527629901,2.499687083,-1.15947323,0,1,3,0.242530719,0.242530719,-1.338,-1.221
1,1,359,SevenGo,Go,0.151552942,2.555094449,2.527629901,-0.82501834,0,1,4,0.727592158,0.727592158,-1.338,-1.221
1,1,317,SevenGo,Go,0.165986556,2.501059262,2.555094449,-0.496287996,0,1,5,1.212653597,1.212653597,-1.338,-1.221
1,1,347,SevenGo,Go,0.180420169,2.540329475,2.501059262,-1.143049254,0,1,6,1.697715035,1.697715035,-1.338,-1.221
1,1,0,SevenGo,NoGo,0.194853783,0,2.540329475,-0.673013823,0,1,7,2.182776474,2.182776474,-1.338,-1.221
1,1,284,FiveGo,Go,0.209287396,2.45331834,NA,NA,0,1,0,-1.212653597,-1.212653597,-1.338,-1.221
1,1,346,FiveGo,Go,0.22372101,2.539076099,2.45331834,-1.714472819,0,1,1,-0.727592158,-0.727592158,-1.338,-1.221
1,0,0,FiveGo,Go,0.238154623,0,2.539076099,-0.688015808,0,1,2,-0.242530719,-0.242530719,-1.338,-1.221
1,1,397,FiveGo,Go,0.252588237,2.598790507,NA,NA,1,1,3,0.242530719,0.242530719,-1.338,-1.221
1,1,395,FiveGo,Go,0.26702185,2.596597096,2.598790507,0.026721536,0,1,4,0.727592158,0.727592158,-1.338,-1.221
1,1,0,FiveGo,NoGo,0.281455464,0,2.596597096,0.000468025,0,1,5,1.212653597,1.212653597,-1.338,-1.221
1,1,420,OneGo,Go,0.295889077,2.62324929,NA,NA,0,1,0,-1.212653597,-1.212653597,-1.338,-1.221
1,0,393,OneGo,NoGo,0.310322691,2.59439255,2.62324929,0.319475105,0,1,1,-0.727592158,-0.727592158,-1.338,-1.221
1,1,485,FiveGo,Go,0.324756305,2.685741739,2.59439255,-0.025918752,1,1,0,-1.212653597,-1.212653597,-1.338,-1.221
1,1,443,FiveGo,Go,0.339189918,2.646403726,2.685741739,1.067463539,0,1,1,-0.727592158,-0.727592158,-1.338,-1.221
1,1,417,FiveGo,Go,0.353623532,2.620136055,2.646403726,0.596616595,0,1,2,-0.242530719,-0.242530719,-1.338,-1.221
1,1,358,FiveGo,Go,0.368057145,2.553883027,2.620136055,0.282211977,0,1,3,0.242530719,0.242530719,-1.338,-1.221
1,1,348,FiveGo,Go,0.382490759,2.541579244,2.553883027,-0.510787822,0,1,4,0.727592158,0.727592158,-1.338,-1.221
1,1,0,FiveGo,NoGo,0.396924372,0,2.541579244,-0.65805501,0,1,5,1.212653597,1.212653597,-1.338,-1.221
1,1,293,SevenGo,Go,0.411357986,2.46686762,NA,NA,0,1,0,-1.212653597,-1.212653597,-1.338,-1.221
1,1,386,SevenGo,Go,0.425791599,2.586587305,2.46686762,-1.552297945,0,1,1,-0.727592158,-0.727592158,-1.338,-1.221
1,1,368,SevenGo,Go,0.440225213,2.565847819,2.586587305,-0.119341777,0,1,2,-0.242530719,-0.242530719,-1.338,-1.221
1,1,374,SevenGo,Go,0.454658826,2.572871602,2.565847819,-0.367578101,0,1,3,0.242530719,0.242530719,-1.338,-1.221
1,1,284,SevenGo,Go,0.46909244,2.45331834,2.572871602,-0.283508602,0,1,4,0.727592158,0.727592158,-1.338,-1.221
1,1,377,SevenGo,Go,0.483526053,2.57634135,2.45331834,-1.714472819,0,1,5,1.212653597,1.212653597,-1.338,-1.221
1,1,423,SevenGo,Go,0.497959667,2.626340367,2.57634135,-0.241978282,0,1,6,1.697715035,1.697715035,-1.338,-1.221
1,1,0,SevenGo,NoGo,0.51239328,0,2.626340367,0.356473013,0,1,7,2.182776474,2.182776474,-1.338,-1.221
1,1,345,ThreeGo,Go,0.526826894,2.537819095,NA,NA,0,1,0,-1.212653597,-1.212653597,-1.338,-1.221
1,1,318,ThreeGo,Go,0.541260508,2.50242712,2.537819095,-0.703061214,0,1,1,-0.727592158,-0.727592158,-1.338,-1.221
1,1,372,ThreeGo,Go,0.555694121,2.57054294,2.50242712,-1.126677007,0,1,2,-0.242530719,-0.242530719,-1.338,-1.221
1,1,0,ThreeGo,NoGo,0.570127735,0,2.57054294,-0.311380969,0,1,3,0.242530719,0.242530719,-1.338,-1.221
1,1,473,ThreeGo,Go,0.584561348,2.674861141,NA,NA,0,1,0,-1.212653597,-1.212653597,-1.338,-1.221
1,1,366,ThreeGo,Go,0.598994962,2.563481085,2.674861141,0.937230821,0,1,1,-0.727592158,-0.727592158,-1.338,-1.221
1,1,380,ThreeGo,Go,0.613428575,2.579783597,2.563481085,-0.39590615,0,1,2,-0.242530719,-0.242530719,-1.338,-1.221
1,0,298,ThreeGo,NoGo,0.627862189,2.474216264,2.579783597,-0.200777135,0,1,3,0.242530719,0.242530719,-1.338,-1.221
1,1,317,OneGo,Go,0.642295802,2.501059262,2.474216264,-1.464340109,1,1,0,-1.212653597,-1.212653597,-1.338,-1.221
1,1,0,OneGo,NoGo,0.656729416,0,2.501059262,-1.143049254,0,1,1,-0.727592158,-0.727592158,-1.338,-1.221
1,1,318,SevenGo,Go,0.671163029,2.50242712,NA,NA,0,1,0,-1.212653597,-1.212653597,-1.338,-1.221
1,1,540,SevenGo,Go,0.685596643,2.73239376,2.50242712,-1.126677007,0,1,1,-0.727592158,-0.727592158,-1.338,-1.221
1,1,474,SevenGo,Go,0.700030256,2.675778342,2.73239376,1.625853764,0,1,2,-0.242530719,-0.242530719,-1.338,-1.221
1,1,359,SevenGo,Go,0.71446387,2.555094449,2.675778342,0.948209039,0,1,3,0.242530719,0.242530719,-1.338,-1.221
1,1,397,SevenGo,Go,0.728897483,2.598790507,2.555094449,-0.496287996,0,1,4,0.727592158,0.727592158,-1.338,-1.221
1,1,555,SevenGo,Go,0.743331097,2.744292983,2.598790507,0.026721536,0,1,5,1.212653597,1.212653597,-1.338,-1.221
1,1,441,SevenGo,Go,0.757764711,2.644438589,2.744292983,1.768278676,0,1,6,1.697715035,1.697715035,-1.338,-1.221
1,1,0,SevenGo,NoGo,0.772198324,0,2.644438589,0.57309536,0,1,7,2.182776474,2.182776474,-1.338,-1.221
1,1,466,FiveGo,Go,0.786631938,2.668385917,NA,NA,0,1,0,-1.212653597,-1.212653597,-1.338,-1.221
1,1,472,FiveGo,Go,0.801065551,2.673941999,2.668385917,0.859727173,0,1,1,-0.727592158,-0.727592158,-1.338,-1.221
1,1,470,FiveGo,Go,0.815499165,2.672097858,2.673941999,0.926229369,0,1,2,-0.242530719,-0.242530719,-1.338,-1.221
1,1,332,FiveGo,Go,0.829932778,2.521138084,2.672097858,0.904156368,0,1,3,0.242530719,0.242530719,-1.338,-1.221
1,1,393,FiveGo,Go,0.844366392,2.59439255,2.521138084,-0.902720595,0,1,4,0.727592158,0.727592158,-1.338,-1.221
1,1,0,FiveGo,NoGo,0.858800005,0,2.59439255,-0.025918752,0,1,5,1.212653597,1.212653597,-1.338,-1.221
1,1,538,SevenGo,Go,0.873233619,2.730782276,NA,NA,0,1,0,-1.212653597,-1.212653597,-1.338,-1.221
1,1,327,SevenGo,Go,0.887667232,2.514547753,2.730782276,1.60656549,0,1,1,-0.727592158,-0.727592158,-1.338,-1.221
1,1,333,SevenGo,Go,0.902100846,2.522444234,2.514547753,-0.981601989,0,1,2,-0.242530719,-0.242530719,-1.338,-1.221
1,1,387,SevenGo,Go,0.916534459,2.587710965,2.522444234,-0.887086947,0,1,3,0.242530719,0.242530719,-1.338,-1.221
1,1,345,SevenGo,Go,0.930968073,2.537819095,2.587710965,-0.105892393,0,1,4,0.727592158,0.727592158,-1.338,-1.221
1,1,375,SevenGo,Go,0.945401687,2.574031268,2.537819095,-0.703061214,0,1,5,1.212653597,1.212653597,-1.338,-1.221
1,1,428,SevenGo,Go,0.9598353,2.631443769,2.574031268,-0.269628262,0,1,6,1.697715035,1.697715035,-1.338,-1.221
1,1,0,SevenGo,NoGo,0.974268914,0,2.631443769,0.41755696,0,1,7,2.182776474,2.182776474,-1.338,-1.221
1,1,302,OneGo,Go,0.988702527,2.480006943,NA,NA,0,1,0,-1.212653597,-1.212653597,-1.338,-1.221
1,0,292,OneGo,NoGo,1.003136141,2.465382851,2.480006943,-1.395029961,0,1,1,-0.727592158,-0.727592158,-1.338,-1.221
1,1,510,ThreeGo,Go,1.017569754,2.707570176,2.465382851,-1.570069532,1,1,0,-1.212653597,-1.212653597,-1.338,-1.221
1,1,316,ThreeGo,Go,1.032003368,2.499687083,2.707570176,1.328733808,0,1,1,-0.727592158,-0.727592158,-1.338,-1.221
1,1,514,ThreeGo,Go,1.046436981,2.710963119,2.499687083,-1.15947323,0,1,2,-0.242530719,-0.242530719,-1.338,-1.221
1,1,0,ThreeGo,NoGo,1.060870595,0,2.710963119,1.369344827,0,1,3,0.242530719,0.242530719,-1.338,-1.221
1,1,251,FiveGo,Go,1.075304208,2.399673721,NA,NA,0,1,0,-1.212653597,-1.212653597,-1.338,-1.221
1,1,321,FiveGo,Go,1.089737822,2.506505032,2.399673721,-2.356559269,0,1,1,-0.727592158,-0.727592158,-1.338,-1.221
1,1,335,FiveGo,Go,1.104171435,2.525044807,2.506505032,-1.077867408,0,1,2,-0.242530719,-0.242530719,-1.338,-1.221
1,1,429,FiveGo,Go,1.118605049,2.632457292,2.525044807,-0.855960004,0,1,3,0.242530719,0.242530719,-1.338,-1.221
1,1,394,FiveGo,Go,1.133038662,2.595496222,2.632457292,0.429688083,0,1,4,0.727592158,0.727592158,-1.338,-1.221
1,0,560,FiveGo,NoGo,1.147472276,2.748188027,2.595496222,-0.012708621,0,1,5,1.212653597,1.212653597,-1.338,-1.221
1,1,371,SevenGo,Go,1.16190589,2.56937391,2.748188027,1.814899473,1,1,0,-1.212653597,-1.212653597,-1.338,-1.221
1,1,376,SevenGo,Go,1.176339503,2.575187845,2.56937391,-0.325373398,0,1,1,-0.727592158,-0.727592158,-1.338,-1.221
1,1,518,SevenGo,Go,1.190773117,2.71432976,2.575187845,-0.255784888,0,1,2,-0.242530719,-0.242530719,-1.338,-1.221
1,1,412,SevenGo,Go,1.20520673,2.614897216,2.71432976,1.40964103,0,1,3,0.242530719,0.242530719,-1.338,-1.221
1,1,450,SevenGo,Go,1.219640344,2.653212514,2.614897216,0.219506946,0,1,4,0.727592158,0.727592158,-1.338,-1.221
1,1,416,SevenGo,Go,1.234073957,2.619093331,2.653212514,0.678112751,0,1,5,1.212653597,1.212653597,-1.338,-1.221
1,1,NA,SevenGo,Go,1.248507571,NA,2.619093331,0.269731337,0,1,6,1.697715035,1.697715035,-1.338,-1.221
1,1,0,SevenGo,NoGo,1.262941184,0,NA,NA,0,1,7,2.182776474,2.182776474,-1.338,-1.221
1,1,423,OneGo,Go,1.277374798,2.626340367,NA,NA,0,1,0,-1.212653597,-1.212653597,-1.338,-1.221
1,1,0,OneGo,NoGo,1.291808411,0,2.626340367,0.356473013,0,1,1,-0.727592158,-0.727592158,-1.338,-1.221
1,1,335,FiveGo,Go,1.306242025,2.525044807,NA,NA,0,1,0,-1.212653597,-1.212653597,-1.338,-1.221
1,1,301,FiveGo,Go,1.320675638,2.478566496,2.525044807,-0.855960004,0,1,1,-0.727592158,-0.727592158,-1.338,-1.221
1,1,291,FiveGo,Go,1.335109252,2.463892989,2.478566496,-1.412271052,0,1,2,-0.242530719,-0.242530719,-1.338,-1.221
1,1,369,FiveGo,Go,1.349542865,2.567026366,2.463892989,-1.587902084,0,1,3,0.242530719,0.242530719,-1.338,-1.221
1,1,334,FiveGo,Go,1.363976479,2.523746467,2.567026366,-0.353471758,0,1,4,0.727592158,0.727592158,-1.338,-1.221
1,0,292,FiveGo,NoGo,1.378410093,2.465382851,2.523746467,-0.871500177,0,1,5,1.212653597,1.212653597,-1.338,-1.221
1,1,496,ThreeGo,Go,1.392843706,2.695481676,2.465382851,-1.570069532,1,1,0,-1.212653597,-1.212653597,-1.338,-1.221
1,1,454,ThreeGo,Go,1.40727732,2.657055853,2.695481676,1.184043399,0,1,1,-0.727592158,-0.727592158,-1.338,-1.221
1,1,459,ThreeGo,Go,1.421710933,2.661812686,2.657055853,0.72411468,0,1,2,-0.242530719,-0.242530719,-1.338,-1.221
1,1,0,ThreeGo,NoGo,1.436144547,0,2.661812686,0.781050453,0,1,3,0.242530719,0.242530719,-1.338,-1.221
1,1,532,ThreeGo,Go,1.45057816,2.725911632,NA,NA,0,1,0,-1.212653597,-1.212653597,-1.338,-1.221
1,1,402,ThreeGo,Go,1.465011774,2.604226053,2.725911632,1.548267487,0,1,1,-0.727592158,-0.727592158,-1.338,-1.221
1,1,343,ThreeGo,Go,1.479445387,2.53529412,2.604226053,0.09178101,0,1,2,-0.242530719,-0.242530719,-1.338,-1.221
1,0,309,ThreeGo,NoGo,1.493879001,2.489958479,2.53529412,-0.733283299,0,1,3,0.242530719,0.242530719,-1.338,-1.221
1,1,417,OneGo,Go,1.508312614,2.620136055,2.489958479,-1.275917422,1,1,0,-1.212653597,-1.212653597,-1.338,-1.221
1,1,0,OneGo,NoGo,1.522746228,0,2.620136055,0.282211977,0,1,1,-0.727592158,-0.727592158,-1.338,-1.221
1,1,465,FiveGo,Go,1.537179841,2.667452953,NA,NA,0,1,0,-1.212653597,-1.212653597,-1.338,-1.221
1,1,351,FiveGo,Go,1.551613455,2.545307116,2.667452953,0.848560286,0,1,1,-0.727592158,-0.727592158,-1.338,-1.221
1,1,301,FiveGo,Go,1.566047068,2.478566496,2.545307116,-0.61343513,0,1,2,-0.242530719,-0.242530719,-1.338,-1.221
1,1,411,FiveGo,Go,1.580480682,2.613841822,2.478566496,-1.412271052,0,1,3,0.242530719,0.242530719,-1.338,-1.221
1,1,464,FiveGo,Go,1.594914296,2.666517981,2.613841822,0.206874658,0,1,4,0.727592158,0.727592158,-1.338,-1.221
1,1,0,FiveGo,NoGo,1.609347909,0,2.666517981,0.837369358,0,1,5,1.212653597,1.212653597,-1.338,-1.221
1,1,426,SevenGo,Go,1.623781523,2.629409599,NA,NA,0,1,0,-1.212653597,-1.212653597,-1.338,-1.221
1,1,440,SevenGo,Go,1.638215136,2.643452676,2.629409599,0.393209449,0,1,1,-0.727592158,-0.727592158,-1.338,-1.221
1,1,485,SevenGo,Go,1.65264875,2.685741739,2.643452676,0.56129471,0,1,2,-0.242530719,-0.242530719,-1.338,-1.221
1,1,419,SevenGo,Go,1.667082363,2.622214023,2.685741739,1.067463539,0,1,3,0.242530719,0.242530719,-1.338,-1.221
1,1,465,SevenGo,Go,1.681515977,2.667452953,2.622214023,0.307083719,0,1,4,0.727592158,0.727592158,-1.338,-1.221
1,1,526,SevenGo,Go,1.69594959,2.720985744,2.667452953,0.848560286,0,1,5,1.212653597,1.212653597,-1.338,-1.221
1,1,500,SevenGo,Go,1.710383204,2.698970004,2.720985744,1.489308245,0,1,6,1.697715035,1.697715035,-1.338,-1.221
1,1,0,SevenGo,NoGo,1.724816817,0,2.698970004,1.225796106,0,1,7,2.182776474,2.182776474,-1.338,-1.221
2,1,361,SevenGo,Go,-1.724816817,2.557507202,NA,NA,NA,2,0,-1.212653597,-1.212653597,-0.004,1.484
2,1,334,SevenGo,Go,-1.710383204,2.523746467,2.557507202,0.414440388,0,2,1,-0.727592158,-0.727592158,-0.004,1.484
2,1,284,SevenGo,Go,-1.69594959,2.45331834,2.523746467,-0.046461618,0,2,2,-0.242530719,-0.242530719,-0.004,1.484
2,1,370,SevenGo,Go,-1.681515977,2.568201724,2.45331834,-1.007947343,0,2,3,0.242530719,0.242530719,-0.004,1.484
2,1,320,SevenGo,Go,-1.667082363,2.505149978,2.568201724,0.560442147,0,2,4,0.727592158,0.727592158,-0.004,1.484
2,1,277,SevenGo,Go,-1.65264875,2.442479769,2.505149978,-0.300341126,0,2,5,1.212653597,1.212653597,-0.004,1.484
2,1,259,SevenGo,Go,-1.638215136,2.413299764,2.442479769,-1.155915659,0,2,6,1.697715035,1.697715035,-0.004,1.484
2,1,0,SevenGo,NoGo,-1.623781523,0,2.413299764,-1.554281476,0,2,7,2.182776474,2.182776474,-0.004,1.484
2,1,324,ThreeGo,Go,-1.609347909,2.51054501,NA,NA,0,2,0,-1.212653597,-1.212653597,-0.004,1.484
2,1,281,ThreeGo,Go,-1.594914296,2.44870632,2.51054501,-0.226688079,0,2,1,-0.727592158,-0.727592158,-0.004,1.484
2,1,287,ThreeGo,Go,-1.580480682,2.457881897,2.44870632,-1.070910704,0,2,2,-0.242530719,-0.242530719,-0.004,1.484
2,0,269,ThreeGo,NoGo,-1.566047068,2.42975228,2.457881897,-0.945645606,0,2,3,0.242530719,0.242530719,-0.004,1.484
2,1,441,FiveGo,Go,-1.551613455,2.644438589,2.42975228,-1.329671509,1,2,0,-1.212653597,-1.212653597,-0.004,1.484
2,1,334,FiveGo,Go,-1.537179841,2.523746467,2.644438589,1.60122885,0,2,1,-0.727592158,-0.727592158,-0.004,1.484
2,1,332,FiveGo,Go,-1.522746228,2.521138084,2.523746467,-0.046461618,0,2,2,-0.242530719,-0.242530719,-0.004,1.484
2,1,322,FiveGo,Go,-1.508312614,2.507855872,2.521138084,-0.082071299,0,2,3,0.242530719,0.242530719,-0.004,1.484
2,1,368,FiveGo,Go,-1.493879001,2.565847819,2.507855872,-0.263400234,0,2,4,0.727592158,0.727592158,-0.004,1.484
2,1,0,FiveGo,NoGo,-1.479445387,0,2.565847819,0.528306599,0,2,5,1.212653597,1.212653597,-0.004,1.484
2,1,312,OneGo,Go,-1.465011774,2.494154594,NA,NA,0,2,0,-1.212653597,-1.212653597,-0.004,1.484
2,0,278,OneGo,NoGo,-1.45057816,2.444044796,2.494154594,-0.45045026,0,2,1,-0.727592158,-0.727592158,-0.004,1.484
2,1,330,FiveGo,Go,-1.436144547,2.51851394,2.444044796,-1.134549891,1,2,0,-1.212653597,-1.212653597,-0.004,1.484
2,1,367,FiveGo,Go,-1.421710933,2.564666064,2.51851394,-0.117896145,0,2,1,-0.727592158,-0.727592158,-0.004,1.484
2,1,341,FiveGo,Go,-1.40727732,2.532754379,2.564666064,0.512173272,0,2,2,-0.242530719,-0.242530719,-0.004,1.484
2,1,331,FiveGo,Go,-1.392843706,2.519827994,2.532754379,0.07651452,0,2,3,0.242530719,0.242530719,-0.004,1.484
2,1,313,FiveGo,Go,-1.378410093,2.495544338,2.519827994,-0.099956664,0,2,4,0.727592158,0.727592158,-0.004,1.484
2,1,0,FiveGo,NoGo,-1.363976479,0,2.495544338,-0.431477462,0,2,5,1.212653597,1.212653597,-0.004,1.484
2,1,329,ThreeGo,Go,-1.349542865,2.517195898,NA,NA,0,2,0,-1.212653597,-1.212653597,-0.004,1.484
2,1,351,ThreeGo,Go,-1.335109252,2.545307116,2.517195898,-0.135890071,0,2,1,-0.727592158,-0.727592158,-0.004,1.484
2,1,365,ThreeGo,Go,-1.320675638,2.562292864,2.545307116,0.247884659,0,2,2,-0.242530719,-0.242530719,-0.004,1.484
2,1,0,ThreeGo,NoGo,-1.306242025,0,2.562292864,0.479774317,0,2,3,0.242530719,0.242530719,-0.004,1.484
2,1,318,SevenGo,Go,-1.291808411,2.50242712,NA,NA,0,2,0,-1.212653597,-1.212653597,-0.004,1.484
2,1,348,SevenGo,Go,-1.277374798,2.541579244,2.50242712,-0.337513625,0,2,1,-0.727592158,-0.727592158,-0.004,1.484
2,1,362,SevenGo,Go,-1.262941184,2.558708571,2.541579244,0.196991694,0,2,2,-0.242530719,-0.242530719,-0.004,1.484
2,1,319,SevenGo,Go,-1.248507571,2.503790683,2.558708571,0.430841488,0,2,3,0.242530719,0.242530719,-0.004,1.484
2,1,325,SevenGo,Go,-1.234073957,2.511883361,2.503790683,-0.318898243,0,2,4,0.727592158,0.727592158,-0.004,1.484
2,1,371,SevenGo,Go,-1.219640344,2.56937391,2.511883361,-0.208416897,0,2,5,1.212653597,1.212653597,-0.004,1.484
2,1,313,SevenGo,Go,-1.20520673,2.495544338,2.56937391,0.57644484,0,2,6,1.697715035,1.697715035,-0.004,1.484
2,1,0,SevenGo,NoGo,-1.190773117,0,2.495544338,-0.431477462,0,2,7,2.182776474,2.182776474,-0.004,1.484
2,1,265,OneGo,Go,-1.176339503,2.423245874,NA,NA,0,2,0,-1.212653597,-1.212653597,-0.004,1.484
2,1,0,OneGo,NoGo,-1.16190589,0,2.423245874,-1.418497051,0,2,1,-0.727592158,-0.727592158,-0.004,1.484
2,1,331,SevenGo,Go,-1.147472276,2.519827994,NA,NA,0,2,0,-1.212653597,-1.212653597,-0.004,1.484
2,1,336,SevenGo,Go,-1.133038662,2.526339277,2.519827994,-0.099956664,0,2,1,-0.727592158,-0.727592158,-0.004,1.484
2,1,334,SevenGo,Go,-1.118605049,2.523746467,2.526339277,-0.011064533,0,2,2,-0.242530719,-0.242530719,-0.004,1.484
2,1,372,SevenGo,Go,-1.104171435,2.57054294,2.523746467,-0.046461618,0,2,3,0.242530719,0.242530719,-0.004,1.484
2,1,346,SevenGo,Go,-1.089737822,2.539076099,2.57054294,0.592404457,0,2,4,0.727592158,0.727592158,-0.004,1.484
2,1,335,SevenGo,Go,-1.075304208,2.525044807,2.539076099,0.162818723,0,2,5,1.212653597,1.212653597,-0.004,1.484
2,1,333,SevenGo,Go,-1.060870595,2.522444234,2.525044807,-0.02873666,0,2,6,1.697715035,1.697715035,-0.004,1.484
2,0,299,SevenGo,NoGo,-1.046436981,2.475671188,2.522444234,-0.064239724,0,2,7,2.182776474,2.182776474,-0.004,1.484
2,1,374,OneGo,Go,-1.032003368,2.572871602,2.475671188,-0.70278596,1,2,0,-1.212653597,-1.212653597,-0.004,1.484
2,1,0,OneGo,NoGo,-1.017569754,0,2.572871602,0.624195386,0,2,1,-0.727592158,-0.727592158,-0.004,1.484
2,1,351,ThreeGo,Go,-1.003136141,2.545307116,NA,NA,0,2,0,-1.212653597,-1.212653597,-0.004,1.484
2,1,421,ThreeGo,Go,-0.988702527,2.624282096,2.545307116,0.247884659,0,2,1,-0.727592158,-0.727592158,-0.004,1.484
2,1,531,ThreeGo,Go,-0.974268914,2.725094521,2.624282096,1.32605213,0,2,2,-0.242530719,-0.242530719,-0.004,1.484
2,1,0,ThreeGo,NoGo,-0.9598353,0,2.725094521,2.702344703,0,2,3,0.242530719,0.242530719,-0.004,1.484
2,1,259,FiveGo,Go,-0.945401687,2.413299764,NA,NA,0,2,0,-1.212653597,-1.212653597,-0.004,1.484
2,1,401,FiveGo,Go,-0.930968073,2.603144373,2.413299764,-1.554281476,0,2,1,-0.727592158,-0.727592158,-0.004,1.484
2,1,415,FiveGo,Go,-0.916534459,2.618048097,2.603144373,1.037479651,0,2,2,-0.242530719,-0.242530719,-0.004,1.484
2,1,324,FiveGo,Go,-0.902100846,2.51054501,2.618048097,1.240945491,0,2,3,0.242530719,0.242530719,-0.004,1.484
2,1,322,FiveGo,Go,-0.887667232,2.507855872,2.51054501,-0.226688079,0,2,4,0.727592158,0.727592158,-0.004,1.484
2,1,0,FiveGo,NoGo,-0.873233619,0,2.507855872,-0.263400234,0,2,5,1.212653597,1.212653597,-0.004,1.484
2,1,340,SevenGo,Go,-0.858800005,2.531478917,NA,NA,0,2,0,-1.212653597,-1.212653597,-0.004,1.484
2,1,345,SevenGo,Go,-0.844366392,2.537819095,2.531478917,0.059101896,0,2,1,-0.727592158,-0.727592158,-0.004,1.484
2,1,311,SevenGo,Go,-0.829932778,2.492760389,2.537819095,0.145658091,0,2,2,-0.242530719,-0.242530719,-0.004,1.484
2,1,349,SevenGo,Go,-0.815499165,2.542825427,2.492760389,-0.469483965,0,2,3,0.242530719,0.242530719,-0.004,1.484
2,1,307,SevenGo,Go,-0.801065551,2.487138375,2.542825427,0.214004601,0,2,4,0.727592158,0.727592158,-0.004,1.484
2,1,368,SevenGo,Go,-0.786631938,2.565847819,2.487138375,-0.546235769,0,2,5,1.212653597,1.212653597,-0.004,1.484
2,1,326,SevenGo,Go,-0.772198324,2.5132176,2.565847819,0.528306599,0,2,6,1.697715035,1.697715035,-0.004,1.484
2,1,0,SevenGo,NoGo,-0.757764711,0,2.5132176,-0.190201847,0,2,7,2.182776474,2.182776474,-0.004,1.484
2,1,327,FiveGo,Go,-0.743331097,2.514547753,NA,NA,0,2,0,-1.212653597,-1.212653597,-0.004,1.484
2,1,341,FiveGo,Go,-0.728897483,2.532754379,2.514547753,-0.172042586,0,2,1,-0.727592158,-0.727592158,-0.004,1.484
2,1,347,FiveGo,Go,-0.71446387,2.540329475,2.532754379,0.07651452,0,2,2,-0.242530719,-0.242530719,-0.004,1.484
2,1,385,FiveGo,Go,-0.700030256,2.58546073,2.540329475,0.179929828,0,2,3,0.242530719,0.242530719,-0.004,1.484
2,1,375,FiveGo,Go,-0.685596643,2.574031268,2.58546073,0.796062319,0,2,4,0.727592158,0.727592158,-0.004,1.484
2,1,0,FiveGo,NoGo,-0.671163029,0,2.574031268,0.640027155,0,2,5,1.212653597,1.212653597,-0.004,1.484
2,1,319,OneGo,Go,-0.656729416,2.503790683,NA,NA,0,2,0,-1.212653597,-1.212653597,-0.004,1.484
2,1,0,OneGo,NoGo,-0.642295802,0,2.503790683,-0.318898243,0,2,1,-0.727592158,-0.727592158,-0.004,1.484
2,1,288,ThreeGo,Go,-0.627862189,2.459392488,NA,NA,0,2,0,-1.212653597,-1.212653597,-0.004,1.484
2,1,333,ThreeGo,Go,-0.613428575,2.522444234,2.459392488,-0.925022998,0,2,1,-0.727592158,-0.727592158,-0.004,1.484
2,1,340,ThreeGo,Go,-0.598994962,2.531478917,2.522444234,-0.064239724,0,2,2,-0.242530719,-0.242530719,-0.004,1.484
2,1,0,ThreeGo,NoGo,-0.584561348,0,2.531478917,0.059101896,0,2,3,0.242530719,0.242530719,-0.004,1.484
2,1,562,ThreeGo,Go,-0.570127735,2.749736316,NA,NA,0,2,0,-1.212653597,-1.212653597,-0.004,1.484
2,1,336,ThreeGo,Go,-0.555694121,2.526339277,2.749736316,3.03875481,0,2,1,-0.727592158,-0.727592158,-0.004,1.484
2,1,334,ThreeGo,Go,-0.541260508,2.523746467,2.526339277,-0.011064533,0,2,2,-0.242530719,-0.242530719,-0.004,1.484
2,1,0,ThreeGo,NoGo,-0.526826894,0,2.523746467,-0.046461618,0,2,3,0.242530719,0.242530719,-0.004,1.484
2,1,311,FiveGo,Go,-0.51239328,2.492760389,NA,NA,0,2,0,-1.212653597,-1.212653597,-0.004,1.484
2,1,333,FiveGo,Go,-0.497959667,2.522444234,2.492760389,-0.469483965,0,2,1,-0.727592158,-0.727592158,-0.004,1.484
2,1,419,FiveGo,Go,-0.483526053,2.622214023,2.522444234,-0.064239724,0,2,2,-0.242530719,-0.242530719,-0.004,1.484
2,1,392,FiveGo,Go,-0.46909244,2.593286067,2.622214023,1.297818772,0,2,3,0.242530719,0.242530719,-0.004,1.484
2,1,414,FiveGo,Go,-0.454658826,2.617000341,2.593286067,0.902893931,0,2,4,0.727592158,0.727592158,-0.004,1.484
2,1,0,FiveGo,NoGo,-0.440225213,0,2.617000341,1.226641518,0,2,5,1.212653597,1.212653597,-0.004,1.484
2,1,319,SevenGo,Go,-0.425791599,2.503790683,NA,NA,0,2,0,-1.212653597,-1.212653597,-0.004,1.484
2,1,308,SevenGo,Go,-0.411357986,2.488550717,2.503790683,-0.318898243,0,2,1,-0.727592158,-0.727592158,-0.004,1.484
2,1,282,SevenGo,Go,-0.396924372,2.450249108,2.488550717,-0.52695447,0,2,2,-0.242530719,-0.242530719,-0.004,1.484
2,1,384,SevenGo,Go,-0.382490759,2.584331224,2.450249108,-1.049848536,0,2,3,0.242530719,0.242530719,-0.004,1.484
2,1,414,SevenGo,Go,-0.368057145,2.617000341,2.584331224,0.7806423,0,2,4,0.727592158,0.727592158,-0.004,1.484
2,1,275,SevenGo,Go,-0.353623532,2.439332694,2.617000341,1.226641518,0,2,5,1.212653597,1.212653597,-0.004,1.484
2,1,281,SevenGo,Go,-0.339189918,2.44870632,2.439332694,-1.198879572,0,2,6,1.697715035,1.697715035,-0.004,1.484
2,0,288,SevenGo,NoGo,-0.324756305,2.459392488,2.44870632,-1.070910704,0,2,7,2.182776474,2.182776474,-0.004,1.484
2,1,315,OneGo,Go,-0.310322691,2.498310554,2.459392488,-0.925022998,1,2,0,-1.212653597,-1.212653597,-0.004,1.484
2,NA,NA,OneGo,NoGo,-0.295889077,NA,2.498310554,-0.393713041,0,2,1,-0.727592158,-0.727592158,-0.004,1.484
2,1,491,OneGo,Go,-0.281455464,2.691081492,NA,NA,NA,2,0,-1.212653597,-1.212653597,-0.004,1.484
2,1,0,OneGo,NoGo,-0.26702185,0,2.691081492,2.237998379,0,2,1,-0.727592158,-0.727592158,-0.004,1.484
2,1,349,ThreeGo,Go,-0.252588237,2.542825427,NA,NA,0,2,0,-1.212653597,-1.212653597,-0.004,1.484
2,1,482,ThreeGo,Go,-0.238154623,2.683047038,2.542825427,0.214004601,0,2,1,-0.727592158,-0.727592158,-0.004,1.484
2,1,312,ThreeGo,Go,-0.22372101,2.494154594,2.683047038,2.128311907,0,2,2,-0.242530719,-0.242530719,-0.004,1.484
2,1,0,ThreeGo,NoGo,-0.209287396,0,2.494154594,-0.45045026,0,2,3,0.242530719,0.242530719,-0.004,1.484
2,1,289,SevenGo,Go,-0.194853783,2.460897843,NA,NA,0,2,0,-1.212653597,-1.212653597,-0.004,1.484
2,1,438,SevenGo,Go,-0.180420169,2.641474111,2.460897843,-0.904471871,0,2,1,-0.727592158,-0.727592158,-0.004,1.484
2,1,348,SevenGo,Go,-0.165986556,2.541579244,2.641474111,1.560757743,0,2,2,-0.242530719,-0.242530719,-0.004,1.484
2,1,354,SevenGo,Go,-0.151552942,2.549003262,2.541579244,0.196991694,0,2,3,0.242530719,0.242530719,-0.004,1.484
2,1,344,SevenGo,Go,-0.137119329,2.536558443,2.549003262,0.298344487,0,2,4,0.727592158,0.727592158,-0.004,1.484
2,1,397,SevenGo,Go,-0.122685715,2.598790507,2.536558443,0.128447646,0,2,5,1.212653597,1.212653597,-0.004,1.484
2,1,331,SevenGo,Go,-0.108252102,2.519827994,2.598790507,0.978040616,0,2,6,1.697715035,1.697715035,-0.004,1.484
2,1,0,SevenGo,NoGo,-0.093818488,0,2.519827994,-0.099956664,0,2,7,2.182776474,2.182776474,-0.004,1.484
2,1,357,FiveGo,Go,-0.079384874,2.552668216,NA,NA,0,2,0,-1.212653597,-1.212653597,-0.004,1.484
2,1,306,FiveGo,Go,-0.064951261,2.485721426,2.552668216,0.348378489,0,2,1,-0.727592158,-0.727592158,-0.004,1.484
2,1,304,FiveGo,Go,-0.050517647,2.482873584,2.485721426,-0.565579975,0,2,2,-0.242530719,-0.242530719,-0.004,1.484
2,1,286,FiveGo,Go,-0.036084034,2.456366033,2.482873584,-0.604458764,0,2,3,0.242530719,0.242530719,-0.004,1.484
2,1,252,FiveGo,Go,-0.02165042,2.401400541,2.456366033,-0.966340197,0,2,4,0.727592158,0.727592158,-0.004,1.484
2,1,0,FiveGo,NoGo,-0.007216807,0,2.401400541,-1.716729831,0,2,5,1.212653597,1.212653597,-0.004,1.484
2,1,260,OneGo,Go,0.007216807,2.414973348,NA,NA,0,2,0,-1.212653597,-1.212653597,-0.004,1.484
2,0,275,OneGo,NoGo,0.02165042,2.439332694,2.414973348,-1.531433686,0,2,1,-0.727592158,-0.727592158,-0.004,1.484
2,1,326,ThreeGo,Go,0.036084034,2.5132176,2.439332694,-1.198879572,1,2,0,-1.212653597,-1.212653597,-0.004,1.484
2,1,316,ThreeGo,Go,0.050517647,2.499687083,2.5132176,-0.190201847,0,2,1,-0.727592158,-0.727592158,-0.004,1.484
2,1,345,ThreeGo,Go,0.064951261,2.537819095,2.499687083,-0.374920651,0,2,2,-0.242530719,-0.242530719,-0.004,1.484
2,1,0,ThreeGo,NoGo,0.079384874,0,2.537819095,0.145658091,0,2,3,0.242530719,0.242530719,-0.004,1.484
2,1,290,SevenGo,Go,0.093818488,2.462397998,NA,NA,0,2,0,-1.212653597,-1.212653597,-0.004,1.484
2,1,247,SevenGo,Go,0.108252102,2.392696953,2.462397998,-0.883991733,0,2,1,-0.727592158,-0.727592158,-0.004,1.484
2,1,317,SevenGo,Go,0.122685715,2.501059262,2.392696953,-1.835551324,0,2,2,-0.242530719,-0.242530719,-0.004,1.484
2,1,299,SevenGo,Go,0.137119329,2.475671188,2.501059262,-0.356187637,0,2,3,0.242530719,0.242530719,-0.004,1.484
2,1,353,SevenGo,Go,0.151552942,2.547774705,2.475671188,-0.70278596,0,2,4,0.727592158,0.727592158,-0.004,1.484
2,1,280,SevenGo,Go,0.165986556,2.447158031,2.547774705,0.281572216,0,2,5,1.212653597,1.212653597,-0.004,1.484
2,1,325,SevenGo,Go,0.180420169,2.511883361,2.447158031,-1.09204796,0,2,6,1.697715035,1.697715035,-0.004,1.484
2,1,0,SevenGo,NoGo,0.194853783,0,2.511883361,-0.208416897,0,2,7,2.182776474,2.182776474,-0.004,1.484
2,1,246,FiveGo,Go,0.209287396,2.390935107,NA,NA,0,2,0,-1.212653597,-1.212653597,-0.004,1.484
2,1,228,FiveGo,Go,0.22372101,2.357934847,2.390935107,-1.859604071,0,2,1,-0.727592158,-0.727592158,-0.004,1.484
2,1,337,FiveGo,Go,0.238154623,2.527629901,2.357934847,-2.310124062,0,2,2,-0.242530719,-0.242530719,-0.004,1.484
2,1,303,FiveGo,Go,0.252588237,2.481442629,2.527629901,0.006555076,0,2,3,0.242530719,0.242530719,-0.004,1.484
2,1,325,FiveGo,Go,0.26702185,2.511883361,2.481442629,-0.623994182,0,2,4,0.727592158,0.727592158,-0.004,1.484
2,1,0,FiveGo,NoGo,0.281455464,0,2.511883361,-0.208416897,0,2,5,1.212653597,1.212653597,-0.004,1.484
2,1,310,OneGo,Go,0.295889077,2.491361694,NA,NA,0,2,0,-1.212653597,-1.212653597,-0.004,1.484
2,1,0,OneGo,NoGo,0.310322691,0,2.491361694,-0.48857897,0,2,1,-0.727592158,-0.727592158,-0.004,1.484
2,1,447,SevenGo,Go,0.324756305,2.650307523,NA,NA,0,2,0,-1.212653597,-1.212653597,-0.004,1.484
2,1,309,SevenGo,Go,0.339189918,2.489958479,2.650307523,1.68135161,0,2,1,-0.727592158,-0.727592158,-0.004,1.484
2,1,330,SevenGo,Go,0.353623532,2.51851394,2.489958479,-0.507735672,0,2,2,-0.242530719,-0.242530719,-0.004,1.484
2,1,320,SevenGo,Go,0.368057145,2.505149978,2.51851394,-0.117896145,0,2,3,0.242530719,0.242530719,-0.004,1.484
2,1,382,SevenGo,Go,0.382490759,2.582063363,2.505149978,-0.300341126,0,2,4,0.727592158,0.727592158,-0.004,1.484
2,1,315,SevenGo,Go,0.396924372,2.498310554,2.582063363,0.749681425,0,2,5,1.212653597,1.212653597,-0.004,1.484
2,1,353,SevenGo,Go,0.411357986,2.547774705,2.498310554,-0.393713041,0,2,6,1.697715035,1.697715035,-0.004,1.484
2,1,0,SevenGo,NoGo,0.425791599,0,2.547774705,0.281572216,0,2,7,2.182776474,2.182776474,-0.004,1.484
2,1,299,ThreeGo,Go,0.440225213,2.475671188,NA,NA,0,2,0,-1.212653597,-1.212653597,-0.004,1.484
2,1,313,ThreeGo,Go,0.454658826,2.495544338,2.475671188,-0.70278596,0,2,1,-0.727592158,-0.727592158,-0.004,1.484
2,1,390,ThreeGo,Go,0.46909244,2.591064607,2.495544338,-0.431477462,0,2,2,-0.242530719,-0.242530719,-0.004,1.484
2,0,292,ThreeGo,NoGo,0.483526053,2.465382851,2.591064607,0.87256653,0,2,3,0.242530719,0.242530719,-0.004,1.484
2,1,247,FiveGo,Go,0.497959667,2.392696953,2.465382851,-0.843242473,1,2,0,-1.212653597,-1.212653597,-0.004,1.484
2,1,332,FiveGo,Go,0.51239328,2.521138084,2.392696953,-1.835551324,0,2,1,-0.727592158,-0.727592158,-0.004,1.484
2,1,322,FiveGo,Go,0.526826894,2.507855872,2.521138084,-0.082071299,0,2,2,-0.242530719,-0.242530719,-0.004,1.484
2,1,304,FiveGo,Go,0.541260508,2.482873584,2.507855872,-0.263400234,0,2,3,0.242530719,0.242530719,-0.004,1.484
2,1,278,FiveGo,Go,0.555694121,2.444044796,2.482873584,-0.604458764,0,2,4,0.727592158,0.727592158,-0.004,1.484
2,0,316,FiveGo,NoGo,0.570127735,2.499687083,2.444044796,-1.134549891,0,2,5,1.212653597,1.212653597,-0.004,1.484
2,1,408,OneGo,Go,0.584561348,2.610660163,2.499687083,-0.374920651,1,2,0,-1.212653597,-1.212653597,-0.004,1.484
2,1,0,OneGo,NoGo,0.598994962,0,2.610660163,1.140085323,0,2,1,-0.727592158,-0.727592158,-0.004,1.484
2,1,352,ThreeGo,Go,0.613428575,2.546542663,NA,NA,0,2,0,-1.212653597,-1.212653597,-0.004,1.484
2,1,334,ThreeGo,Go,0.627862189,2.523746467,2.546542663,0.264752363,0,2,1,-0.727592158,-0.727592158,-0.004,1.484
2,1,324,ThreeGo,Go,0.642295802,2.51054501,2.523746467,-0.046461618,0,2,2,-0.242530719,-0.242530719,-0.004,1.484
2,1,0,ThreeGo,NoGo,0.656729416,0,2.51054501,-0.226688079,0,2,3,0.242530719,0.242530719,-0.004,1.484
2,1,381,FiveGo,Go,0.671163029,2.580924976,NA,NA,0,2,0,-1.212653597,-1.212653597,-0.004,1.484
2,1,315,FiveGo,Go,0.685596643,2.498310554,2.580924976,0.734140148,0,2,1,-0.727592158,-0.727592158,-0.004,1.484
2,1,305,FiveGo,Go,0.700030256,2.484299839,2.498310554,-0.393713041,0,2,2,-0.242530719,-0.242530719,-0.004,1.484
2,1,326,FiveGo,Go,0.71446387,2.5132176,2.484299839,-0.584987502,0,2,3,0.242530719,0.242530719,-0.004,1.484
2,1,324,FiveGo,Go,0.728897483,2.51054501,2.5132176,-0.190201847,0,2,4,0.727592158,0.727592158,-0.004,1.484
2,0,322,FiveGo,NoGo,0.743331097,2.507855872,2.51054501,-0.226688079,0,2,5,1.212653597,1.212653597,-0.004,1.484
2,1,309,SevenGo,Go,0.757764711,2.489958479,2.507855872,-0.263400234,1,2,0,-1.212653597,-1.212653597,-0.004,1.484
2,1,378,SevenGo,Go,0.772198324,2.5774918,2.489958479,-0.507735672,0,2,1,-0.727592158,-0.727592158,-0.004,1.484
2,1,344,SevenGo,Go,0.786631938,2.536558443,2.5774918,0.687270385,0,2,2,-0.242530719,-0.242530719,-0.004,1.484
2,1,342,SevenGo,Go,0.801065551,2.534026106,2.536558443,0.128447646,0,2,3,0.242530719,0.242530719,-0.004,1.484
2,1,324,SevenGo,Go,0.815499165,2.51054501,2.534026106,0.093876154,0,2,4,0.727592158,0.727592158,-0.004,1.484
2,1,377,SevenGo,Go,0.829932778,2.57634135,2.51054501,-0.226688079,0,2,5,1.212653597,1.212653597,-0.004,1.484
2,1,359,SevenGo,Go,0.844366392,2.555094449,2.57634135,0.671564432,0,2,6,1.697715035,1.697715035,-0.004,1.484
2,1,0,SevenGo,NoGo,0.858800005,0,2.555094449,0.381501447,0,2,7,2.182776474,2.182776474,-0.004,1.484
2,1,281,FiveGo,Go,0.873233619,2.44870632,NA,NA,0,2,0,-1.212653597,-1.212653597,-0.004,1.484
2,1,375,FiveGo,Go,0.887667232,2.574031268,2.44870632,-1.070910704,0,2,1,-0.727592158,-0.727592158,-0.004,1.484
2,1,556,FiveGo,Go,0.902100846,2.745074792,2.574031268,0.640027155,0,2,2,-0.242530719,-0.242530719,-0.004,1.484
2,1,362,FiveGo,Go,0.916534459,2.558708571,2.745074792,2.975115623,0,2,3,0.242530719,0.242530719,-0.004,1.484
2,1,288,FiveGo,Go,0.930968073,2.459392488,2.558708571,0.430841488,0,2,4,0.727592158,0.727592158,-0.004,1.484
2,0,293,FiveGo,NoGo,0.945401687,2.46686762,2.459392488,-0.925022998,0,2,5,1.212653597,1.212653597,-0.004,1.484
2,1,240,ThreeGo,Go,0.9598353,2.380211242,2.46686762,-0.822972388,1,2,0,-1.212653597,-1.212653597,-0.004,1.484
2,1,358,ThreeGo,Go,0.974268914,2.553883027,2.380211242,-2.006006424,0,2,1,-0.727592158,-0.727592158,-0.004,1.484
2,1,380,ThreeGo,Go,0.988702527,2.579783597,2.553883027,0.364963099,0,2,2,-0.242530719,-0.242530719,-0.004,1.484
2,1,0,ThreeGo,NoGo,1.003136141,0,2.579783597,0.718558025,0,2,3,0.242530719,0.242530719,-0.004,1.484
2,1,429,SevenGo,Go,1.017569754,2.632457292,NA,NA,0,2,0,-1.212653597,-1.212653597,-0.004,1.484
2,1,347,SevenGo,Go,1.032003368,2.540329475,2.632457292,1.43766002,0,2,1,-0.727592158,-0.727592158,-0.004,1.484
2,1,345,SevenGo,Go,1.046436981,2.537819095,2.540329475,0.179929828,0,2,2,-0.242530719,-0.242530719,-0.004,1.484
2,1,446,SevenGo,Go,1.060870595,2.649334859,2.537819095,0.145658091,0,2,3,0.242530719,0.242530719,-0.004,1.484
2,1,460,SevenGo,Go,1.075304208,2.662757832,2.649334859,1.668072783,0,2,4,0.727592158,0.727592158,-0.004,1.484
2,1,466,SevenGo,Go,1.089737822,2.668385917,2.662757832,1.851323389,0,2,5,1.212653597,1.212653597,-0.004,1.484
2,1,512,SevenGo,Go,1.104171435,2.709269961,2.668385917,1.92815808,0,2,6,1.697715035,1.697715035,-0.004,1.484
2,1,0,SevenGo,NoGo,1.118605049,0,2.709269961,2.486307598,0,2,7,2.182776474,2.182776474,-0.004,1.484
2,1,368,OneGo,Go,1.133038662,2.565847819,NA,NA,0,2,0,-1.212653597,-1.212653597,-0.004,1.484
2,1,0,OneGo,NoGo,1.147472276,0,2.565847819,0.528306599,0,2,1,-0.727592158,-0.727592158,-0.004,1.484
2,1,258,FiveGo,Go,1.16190589,2.411619706,NA,NA,0,2,0,-1.212653597,-1.212653597,-0.004,1.484
2,1,424,FiveGo,Go,1.176339503,2.627365857,2.411619706,-1.577217651,0,2,1,-0.727592158,-0.727592158,-0.004,1.484
2,1,421,FiveGo,Go,1.190773117,2.624282096,2.627365857,1.368151673,0,2,2,-0.242530719,-0.242530719,-0.004,1.484
2,1,427,FiveGo,Go,1.20520673,2.630427875,2.624282096,1.32605213,0,2,3,0.242530719,0.242530719,-0.004,1.484
2,1,529,FiveGo,Go,1.219640344,2.723455672,2.630427875,1.409954389,0,2,4,0.727592158,0.727592158,-0.004,1.484
2,1,0,FiveGo,NoGo,1.234073957,0,2.723455672,2.679971114,0,2,5,1.212653597,1.212653597,-0.004,1.484
2,1,297,ThreeGo,Go,1.248507571,2.472756449,NA,NA,0,2,0,-1.212653597,-1.212653597,-0.004,1.484
2,1,351,ThreeGo,Go,1.262941184,2.545307116,2.472756449,-0.742578016,0,2,1,-0.727592158,-0.727592158,-0.004,1.484
2,1,446,ThreeGo,Go,1.277374798,2.649334859,2.545307116,0.247884659,0,2,2,-0.242530719,-0.242530719,-0.004,1.484
2,1,0,ThreeGo,NoGo,1.291808411,0,2.649334859,1.668072783,0,2,3,0.242530719,0.242530719,-0.004,1.484
2,1,342,OneGo,Go,1.306242025,2.534026106,NA,NA,0,2,0,-1.212653597,-1.212653597,-0.004,1.484
2,1,0,OneGo,NoGo,1.320675638,0,2.534026106,0.093876154,0,2,1,-0.727592158,-0.727592158,-0.004,1.484
2,1,375,SevenGo,Go,1.335109252,2.574031268,NA,NA,0,2,0,-1.212653597,-1.212653597,-0.004,1.484
2,1,445,SevenGo,Go,1.349542865,2.648360011,2.574031268,0.640027155,0,2,1,-0.727592158,-0.727592158,-0.004,1.484
2,1,562,SevenGo,Go,1.363976479,2.749736316,2.648360011,1.654764148,0,2,2,-0.242530719,-0.242530719,-0.004,1.484
2,1,321,SevenGo,Go,1.378410093,2.506505032,2.749736316,3.03875481,0,2,3,0.242530719,0.242530719,-0.004,1.484
2,1,279,SevenGo,Go,1.392843706,2.445604203,2.506505032,-0.28184191,0,2,4,0.727592158,0.727592158,-0.004,1.484
2,1,268,SevenGo,Go,1.40727732,2.428134794,2.445604203,-1.113260841,0,2,5,1.212653597,1.212653597,-0.004,1.484
2,1,418,SevenGo,Go,1.421710933,2.621176282,2.428134794,-1.351753449,0,2,6,1.697715035,1.697715035,-0.004,1.484
2,1,0,SevenGo,NoGo,1.436144547,0,2.621176282,1.283651515,0,2,7,2.182776474,2.182776474,-0.004,1.484
2,1,267,ThreeGo,Go,1.45057816,2.426511261,NA,NA,0,2,0,-1.212653597,-1.212653597,-0.004,1.484
2,1,281,ThreeGo,Go,1.465011774,2.44870632,2.426511261,-1.373917939,0,2,1,-0.727592158,-0.727592158,-0.004,1.484
2,1,358,ThreeGo,Go,1.479445387,2.553883027,2.44870632,-1.070910704,0,2,2,-0.242530719,-0.242530719,-0.004,1.484
2,1,0,ThreeGo,NoGo,1.493879001,0,2.553883027,0.364963099,0,2,3,0.242530719,0.242530719,-0.004,1.484
2,1,280,FiveGo,Go,1.508312614,2.447158031,NA,NA,0,2,0,-1.212653597,-1.212653597,-0.004,1.484
2,1,334,FiveGo,Go,1.522746228,2.523746467,2.447158031,-1.09204796,0,2,1,-0.727592158,-0.727592158,-0.004,1.484
2,1,371,FiveGo,Go,1.537179841,2.56937391,2.523746467,-0.046461618,0,2,2,-0.242530719,-0.242530719,-0.004,1.484
2,1,321,FiveGo,Go,1.551613455,2.506505032,2.56937391,0.57644484,0,2,3,0.242530719,0.242530719,-0.004,1.484
2,1,439,FiveGo,Go,1.566047068,2.64246452,2.506505032,-0.28184191,0,2,4,0.727592158,0.727592158,-0.004,1.484
2,1,0,FiveGo,NoGo,1.580480682,0,2.64246452,1.57427883,0,2,5,1.212653597,1.212653597,-0.004,1.484
2,1,327,SevenGo,Go,1.594914296,2.514547753,NA,NA,0,2,0,-1.212653597,-1.212653597,-0.004,1.484
2,1,341,SevenGo,Go,1.609347909,2.532754379,2.514547753,-0.172042586,0,2,1,-0.727592158,-0.727592158,-0.004,1.484
2,1,307,SevenGo,Go,1.623781523,2.487138375,2.532754379,0.07651452,0,2,2,-0.242530719,-0.242530719,-0.004,1.484
2,1,281,SevenGo,Go,1.638215136,2.44870632,2.487138375,-0.546235769,0,2,3,0.242530719,0.242530719,-0.004,1.484
2,1,262,SevenGo,Go,1.65264875,2.418301291,2.44870632,-1.070910704,0,2,4,0.727592158,0.727592158,-0.004,1.484
2,1,244,SevenGo,Go,1.667082363,2.387389826,2.418301291,-1.486000559,0,2,5,1.212653597,1.212653597,-0.004,1.484
2,1,282,SevenGo,Go,1.681515977,2.450249108,2.387389826,-1.908004291,0,2,6,1.697715035,1.697715035,-0.004,1.484
2,0,424,SevenGo,NoGo,1.69594959,2.627365857,2.450249108,-1.049848536,0,2,7,2.182776474,2.182776474,-0.004,1.484
2,1,267,OneGo,Go,1.710383204,2.426511261,2.627365857,1.368151673,1,2,0,-1.212653597,-1.212653597,-0.004,1.484
2,0,281,OneGo,NoGo,1.724816817,2.44870632,2.426511261,-1.373917939,0,2,1,-0.727592158,-0.727592158,-0.004,1.484
3,1,376,FiveGo,Go,-1.724816817,2.575187845,NA,NA,NA,3,0,-1.212653597,-1.212653597,0.357,0.126
3,1,342,FiveGo,Go,-1.710383204,2.534026106,2.575187845,0.730273303,0,3,1,-0.727592158,-0.727592158,0.357,0.126
3,1,308,FiveGo,Go,-1.69594959,2.488550717,2.534026106,0.204853458,0,3,2,-0.242530719,-0.242530719,0.357,0.126
3,1,281,FiveGo,Go,-1.681515977,2.44870632,2.488550717,-0.375629116,0,3,3,0.242530719,0.242530719,0.357,0.126
3,1,351,FiveGo,Go,-1.667082363,2.545307116,2.44870632,-0.884233399,0,3,4,0.727592158,0.727592158,0.357,0.126
3,1,0,FiveGo,NoGo,-1.65264875,0,2.545307116,0.348852883,0,3,5,1.212653597,1.212653597,0.357,0.126
3,1,296,OneGo,Go,-1.638215136,2.471291711,NA,NA,0,3,0,-1.212653597,-1.212653597,0.357,0.126
3,1,0,OneGo,NoGo,-1.623781523,0,2.471291711,-0.595936232,0,3,1,-0.727592158,-0.727592158,0.357,0.126
3,1,489,ThreeGo,Go,-1.609347909,2.689308859,NA,NA,0,3,0,-1.212653597,-1.212653597,0.357,0.126
3,1,327,ThreeGo,Go,-1.594914296,2.514547753,2.689308859,2.187001014,0,3,1,-0.727592158,-0.727592158,0.357,0.126
3,1,309,ThreeGo,Go,-1.580480682,2.489958479,2.514547753,-0.043783109,0,3,2,-0.242530719,-0.242530719,0.357,0.126
3,1,0,ThreeGo,NoGo,-1.566047068,0,2.489958479,-0.357659356,0,3,3,0.242530719,0.242530719,0.357,0.126
3,1,293,SevenGo,Go,-1.551613455,2.46686762,NA,NA,0,3,0,-1.212653597,-1.212653597,0.357,0.126
3,1,363,SevenGo,Go,-1.537179841,2.559906625,2.46686762,-0.652408702,0,3,1,-0.727592158,-0.727592158,0.357,0.126
3,1,361,SevenGo,Go,-1.522746228,2.557507202,2.559906625,0.535212152,0,3,2,-0.242530719,-0.242530719,0.357,0.126
3,1,326,SevenGo,Go,-1.508312614,2.5132176,2.557507202,0.504584084,0,3,3,0.242530719,0.242530719,0.357,0.126
3,1,316,SevenGo,Go,-1.493879001,2.499687083,2.5132176,-0.060762191,0,3,4,0.727592158,0.727592158,0.357,0.126
3,1,314,SevenGo,Go,-1.479445387,2.496929648,2.499687083,-0.233476041,0,3,5,1.212653597,1.212653597,0.357,0.126
3,1,336,SevenGo,Go,-1.465011774,2.526339277,2.496929648,-0.26867404,0,3,6,1.697715035,1.697715035,0.357,0.126
3,1,0,SevenGo,NoGo,-1.45057816,0,2.526339277,0.106732911,0,3,7,2.182776474,2.182776474,0.357,0.126
3,1,377,OneGo,Go,-1.436144547,2.57634135,NA,NA,0,3,0,-1.212653597,-1.212653597,0.357,0.126
3,0,327,OneGo,NoGo,-1.421710933,2.514547753,2.57634135,0.744997525,0,3,1,-0.727592158,-0.727592158,0.357,0.126
3,1,490,SevenGo,Go,-1.40727732,2.69019608,2.514547753,-0.043783109,1,3,0,-1.212653597,-1.212653597,0.357,0.126
3,1,335,SevenGo,Go,-1.392843706,2.525044807,2.69019608,2.198326178,0,3,1,-0.727592158,-0.727592158,0.357,0.126
3,1,349,SevenGo,Go,-1.378410093,2.542825427,2.525044807,0.090209304,0,3,2,-0.242530719,-0.242530719,0.357,0.126
3,1,339,SevenGo,Go,-1.363976479,2.530199698,2.542825427,0.317174705,0,3,3,0.242530719,0.242530719,0.357,0.126
3,1,465,SevenGo,Go,-1.349542865,2.667452953,2.530199698,0.156010268,0,3,4,0.727592158,0.727592158,0.357,0.126
3,1,343,SevenGo,Go,-1.335109252,2.53529412,2.667452953,1.908015548,0,3,5,1.212653597,1.212653597,0.357,0.126
3,1,356,SevenGo,Go,-1.320675638,2.551449998,2.53529412,0.221039356,0,3,6,1.697715035,1.697715035,0.357,0.126
3,1,0,SevenGo,NoGo,-1.306242025,0,2.551449998,0.427265311,0,3,7,2.182776474,2.182776474,0.357,0.126
3,1,366,FiveGo,Go,-1.291808411,2.563481085,NA,NA,0,3,0,-1.212653597,-1.212653597,0.357,0.126
3,1,323,FiveGo,Go,-1.277374798,2.509202522,2.563481085,0.580839291,0,3,1,-0.727592158,-0.727592158,0.357,0.126
3,1,329,FiveGo,Go,-1.262941184,2.517195898,2.509202522,-0.112013707,0,3,2,-0.242530719,-0.242530719,0.357,0.126
3,1,319,FiveGo,Go,-1.248507571,2.503790683,2.517195898,-0.009980161,0,3,3,0.242530719,0.242530719,0.357,0.126
3,1,341,FiveGo,Go,-1.234073957,2.532754379,2.503790683,-0.181094554,0,3,4,0.727592158,0.727592158,0.357,0.126
3,1,0,FiveGo,NoGo,-1.219640344,0,2.532754379,0.188620163,0,3,5,1.212653597,1.212653597,0.357,0.126
3,1,293,ThreeGo,Go,-1.20520673,2.46686762,NA,NA,0,3,0,-1.212653597,-1.212653597,0.357,0.126
3,1,339,ThreeGo,Go,-1.190773117,2.530199698,2.46686762,-0.652408702,0,3,1,-0.727592158,-0.727592158,0.357,0.126
3,1,329,ThreeGo,Go,-1.176339503,2.517195898,2.530199698,0.156010268,0,3,2,-0.242530719,-0.242530719,0.357,0.126
3,1,0,ThreeGo,NoGo,-1.16190589,0,2.517195898,-0.009980161,0,3,3,0.242530719,0.242530719,0.357,0.126
3,1,426,SevenGo,Go,-1.147472276,2.629409599,NA,NA,0,3,0,-1.212653597,-1.212653597,0.357,0.126
3,1,296,SevenGo,Go,-1.133038662,2.471291711,2.629409599,1.42240115,0,3,1,-0.727592158,-0.727592158,0.357,0.126
3,1,358,SevenGo,Go,-1.118605049,2.553883027,2.471291711,-0.595936232,0,3,2,-0.242530719,-0.242530719,0.357,0.126
3,1,348,SevenGo,Go,-1.104171435,2.541579244,2.553883027,0.458322345,0,3,3,0.242530719,0.242530719,0.357,0.126
3,1,449,SevenGo,Go,-1.089737822,2.652246341,2.541579244,0.301267474,0,3,4,0.727592158,0.727592158,0.357,0.126
3,1,311,SevenGo,Go,-1.075304208,2.492760389,2.652246341,1.71390675,0,3,5,1.212653597,1.212653597,0.357,0.126
3,1,365,SevenGo,Go,-1.060870595,2.562292864,2.492760389,-0.321893644,0,3,6,1.697715035,1.697715035,0.357,0.126
3,0,339,SevenGo,NoGo,-1.046436981,2.530199698,2.562292864,0.565671932,0,3,7,2.182776474,2.182776474,0.357,0.126
3,1,310,FiveGo,Go,-1.032003368,2.491361694,2.530199698,0.156010268,1,3,0,-1.212653597,-1.212653597,0.357,0.126
3,1,300,FiveGo,Go,-1.017569754,2.477121255,2.491361694,-0.339747657,0,3,1,-0.727592158,-0.727592158,0.357,0.126
3,1,322,FiveGo,Go,-1.003136141,2.507855872,2.477121255,-0.521523488,0,3,2,-0.242530719,-0.242530719,0.357,0.126
3,1,344,FiveGo,Go,-0.988702527,2.536558443,2.507855872,-0.129203384,0,3,3,0.242530719,0.242530719,0.357,0.126
3,1,333,FiveGo,Go,-0.974268914,2.522444234,2.536558443,0.237178134,0,3,4,0.727592158,0.727592158,0.357,0.126
3,1,0,FiveGo,NoGo,-0.9598353,0,2.522444234,0.057013599,0,3,5,1.212653597,1.212653597,0.357,0.126
3,1,286,OneGo,Go,-0.945401687,2.456366033,NA,NA,0,3,0,-1.212653597,-1.212653597,0.357,0.126
3,0,276,OneGo,NoGo,-0.930968073,2.440909082,2.456366033,-0.786458975,0,3,1,-0.727592158,-0.727592158,0.357,0.126
3,1,326,ThreeGo,Go,-0.916534459,2.5132176,2.440909082,-0.983763293,1,3,0,-1.212653597,-1.212653597,0.357,0.126
3,1,356,ThreeGo,Go,-0.902100846,2.551449998,2.5132176,-0.060762191,0,3,1,-0.727592158,-0.727592158,0.357,0.126
3,1,339,ThreeGo,Go,-0.887667232,2.530199698,2.551449998,0.427265311,0,3,2,-0.242530719,-0.242530719,0.357,0.126
3,1,0,ThreeGo,NoGo,-0.873233619,0,2.530199698,0.156010268,0,3,3,0.242530719,0.242530719,0.357,0.126
3,1,267,ThreeGo,Go,-0.858800005,2.426511261,NA,NA,0,3,0,-1.212653597,-1.212653597,0.357,0.126
3,1,369,ThreeGo,Go,-0.844366392,2.567026366,2.426511261,-1.167548064,0,3,1,-0.727592158,-0.727592158,0.357,0.126
3,1,319,ThreeGo,Go,-0.829932778,2.503790683,2.567026366,0.62609396,0,3,2,-0.242530719,-0.242530719,0.357,0.126
3,1,0,ThreeGo,NoGo,-0.815499165,0,2.503790683,-0.181094554,0,3,3,0.242530719,0.242530719,0.357,0.126
3,1,375,OneGo,Go,-0.801065551,2.574031268,NA,NA,0,3,0,-1.212653597,-1.212653597,0.357,0.126
3,1,0,OneGo,NoGo,-0.786631938,0,2.574031268,0.715509869,0,3,1,-0.727592158,-0.727592158,0.357,0.126
3,1,305,SevenGo,Go,-0.772198324,2.484299839,NA,NA,0,3,0,-1.212653597,-1.212653597,0.357,0.126
3,1,455,SevenGo,Go,-0.757764711,2.658011397,2.484299839,-0.429890556,0,3,1,-0.727592158,-0.727592158,0.357,0.126
3,1,508,SevenGo,Go,-0.743331097,2.705863712,2.658011397,1.78749632,0,3,2,-0.242530719,-0.242530719,0.357,0.126
3,1,346,SevenGo,Go,-0.728897483,2.539076099,2.705863712,2.398319792,0,3,3,0.242530719,0.242530719,0.357,0.126
3,1,312,SevenGo,Go,-0.71446387,2.494154594,2.539076099,0.269315419,0,3,4,0.727592158,0.727592158,0.357,0.126
3,1,326,SevenGo,Go,-0.700030256,2.5132176,2.494154594,-0.304096947,0,3,5,1.212653597,1.212653597,0.357,0.126
3,1,307,SevenGo,Go,-0.685596643,2.487138375,2.5132176,-0.060762191,0,3,6,1.697715035,1.697715035,0.357,0.126
3,1,0,SevenGo,NoGo,-0.671163029,0,2.487138375,-0.393657315,0,3,7,2.182776474,2.182776474,0.357,0.126
3,1,260,FiveGo,Go,-0.656729416,2.414973348,NA,NA,0,3,0,-1.212653597,-1.212653597,0.357,0.126
3,1,299,FiveGo,Go,-0.642295802,2.475671188,2.414973348,-1.314826795,0,3,1,-0.727592158,-0.727592158,0.357,0.126
3,1,352,FiveGo,Go,-0.627862189,2.546542663,2.475671188,-0.540033242,0,3,2,-0.242530719,-0.242530719,0.357,0.126
3,1,398,FiveGo,Go,-0.613428575,2.599883072,2.546542663,0.364624348,0,3,3,0.242530719,0.242530719,0.357,0.126
3,1,364,FiveGo,Go,-0.598994962,2.561101384,2.599883072,1.045502027,0,3,4,0.727592158,0.727592158,0.357,0.126
3,0,362,FiveGo,NoGo,-0.584561348,2.558708571,2.561101384,0.550462962,0,3,5,1.212653597,1.212653597,0.357,0.126
3,1,378,ThreeGo,Go,-0.570127735,2.5774918,2.558708571,0.51991927,1,3,0,-1.212653597,-1.212653597,0.357,0.126
3,1,343,ThreeGo,Go,-0.555694121,2.53529412,2.5774918,0.759682742,0,3,1,-0.727592158,-0.727592158,0.357,0.126
3,1,350,ThreeGo,Go,-0.541260508,2.544068044,2.53529412,0.221039356,0,3,2,-0.242530719,-0.242530719,0.357,0.126
3,0,284,ThreeGo,NoGo,-0.526826894,2.45331834,2.544068044,0.333036421,0,3,3,0.242530719,0.242530719,0.357,0.126
3,1,295,FiveGo,Go,-0.51239328,2.469822016,2.45331834,-0.825362055,1,3,0,-1.212653597,-1.212653597,0.357,0.126
3,1,284,FiveGo,Go,-0.497959667,2.45331834,2.469822016,-0.614696542,0,3,1,-0.727592158,-0.727592158,0.357,0.126
3,1,362,FiveGo,Go,-0.483526053,2.558708571,2.45331834,-0.825362055,0,3,2,-0.242530719,-0.242530719,0.357,0.126
3,1,328,FiveGo,Go,-0.46909244,2.515873844,2.558708571,0.51991927,0,3,3,0.242530719,0.242530719,0.357,0.126
3,1,326,FiveGo,Go,-0.454658826,2.5132176,2.515873844,-0.02685587,0,3,4,0.727592158,0.727592158,0.357,0.126
3,1,0,FiveGo,NoGo,-0.440225213,0,2.5132176,-0.060762191,0,3,5,1.212653597,1.212653597,0.357,0.126
3,1,271,OneGo,Go,-0.425791599,2.432969291,NA,NA,0,3,0,-1.212653597,-1.212653597,0.357,0.126
3,1,0,OneGo,NoGo,-0.411357986,0,2.432969291,-1.085112847,0,3,1,-0.727592158,-0.727592158,0.357,0.126
3,1,336,SevenGo,Go,-0.396924372,2.526339277,NA,NA,0,3,0,-1.212653597,-1.212653597,0.357,0.126
3,1,294,SevenGo,Go,-0.382490759,2.46834733,2.526339277,0.106732911,0,3,1,-0.727592158,-0.727592158,0.357,0.126
3,1,379,SevenGo,Go,-0.368057145,2.57863921,2.46834733,-0.633520553,0,3,2,-0.242530719,-0.242530719,0.357,0.126
3,1,281,SevenGo,Go,-0.353623532,2.44870632,2.57863921,0.77432916,0,3,3,0.242530719,0.242530719,0.357,0.126
3,1,263,SevenGo,Go,-0.339189918,2.419955748,2.44870632,-0.884233399,0,3,4,0.727592158,0.727592158,0.357,0.126
3,1,332,SevenGo,Go,-0.324756305,2.521138084,2.419955748,-1.251227632,0,3,5,1.212653597,1.212653597,0.357,0.126
3,1,426,SevenGo,Go,-0.310322691,2.629409599,2.521138084,0.040340906,0,3,6,1.697715035,1.697715035,0.357,0.126
3,0,272,SevenGo,NoGo,-0.295889077,2.434568904,2.629409599,1.42240115,0,3,7,2.182776474,2.182776474,0.357,0.126
3,1,388,ThreeGo,Go,-0.281455464,2.588831726,2.434568904,-1.064694164,1,3,0,-1.212653597,-1.212653597,0.357,0.126
3,1,361,ThreeGo,Go,-0.26702185,2.557507202,2.588831726,0.904434208,0,3,1,-0.727592158,-0.727592158,0.357,0.126
3,1,295,ThreeGo,Go,-0.252588237,2.469822016,2.557507202,0.504584084,0,3,2,-0.242530719,-0.242530719,0.357,0.126
3,1,0,ThreeGo,NoGo,-0.238154623,0,2.469822016,-0.614696542,0,3,3,0.242530719,0.242530719,0.357,0.126
3,1,544,OneGo,Go,-0.22372101,2.7355989,NA,NA,0,3,0,-1.212653597,-1.212653597,0.357,0.126
3,0,446,OneGo,NoGo,-0.209287396,2.649334859,2.7355989,2.777882415,0,3,1,-0.727592158,-0.727592158,0.357,0.126
3,1,272,FiveGo,Go,-0.194853783,2.434568904,2.649334859,1.676742368,1,3,0,-1.212653597,-1.212653597,0.357,0.126
3,1,422,FiveGo,Go,-0.180420169,2.625312451,2.434568904,-1.064694164,0,3,1,-0.727592158,-0.727592158,0.357,0.126
3,1,565,FiveGo,Go,-0.165986556,2.752048448,2.625312451,1.370102024,0,3,2,-0.242530719,-0.242530719,0.357,0.126
3,1,411,FiveGo,Go,-0.151552942,2.613841822,2.752048448,2.987857,0,3,3,0.242530719,0.242530719,0.357,0.126
3,1,344,FiveGo,Go,-0.137119329,2.536558443,2.613841822,1.223682162,0,3,4,0.727592158,0.727592158,0.357,0.126
3,1,0,FiveGo,NoGo,-0.122685715,0,2.536558443,0.237178134,0,3,5,1.212653597,1.212653597,0.357,0.126
3,1,273,SevenGo,Go,-0.108252102,2.436162647,NA,NA,0,3,0,-1.212653597,-1.212653597,0.357,0.126
3,1,351,SevenGo,Go,-0.093818488,2.545307116,2.436162647,-1.044350412,0,3,1,-0.727592158,-0.727592158,0.357,0.126
3,1,364,SevenGo,Go,-0.079384874,2.561101384,2.545307116,0.348852883,0,3,2,-0.242530719,-0.242530719,0.357,0.126
3,1,290,SevenGo,Go,-0.064951261,2.462397998,2.561101384,0.550462962,0,3,3,0.242530719,0.242530719,0.357,0.126
3,1,336,SevenGo,Go,-0.050517647,2.526339277,2.462397998,-0.709462373,0,3,4,0.727592158,0.727592158,0.357,0.126
3,1,390,SevenGo,Go,-0.036084034,2.591064607,2.526339277,0.106732911,0,3,5,1.212653597,1.212653597,0.357,0.126
3,1,459,SevenGo,Go,-0.02165042,2.661812686,2.591064607,0.93293641,0,3,6,1.697715035,1.697715035,0.357,0.126
3,0,409,SevenGo,NoGo,-0.007216807,2.611723308,2.661812686,1.836018872,0,3,7,2.182776474,2.182776474,0.357,0.126
3,1,301,SevenGo,Go,0.007216807,2.478566496,2.611723308,1.196639834,1,3,0,-1.212653597,-1.212653597,0.357,0.126
3,1,243,SevenGo,Go,0.02165042,2.385606274,2.478566496,-0.503075331,0,3,1,-0.727592158,-0.727592158,0.357,0.126
3,1,432,SevenGo,Go,0.036084034,2.635483747,2.385606274,-1.689690542,0,3,2,-0.242530719,-0.242530719,0.357,0.126
3,1,326,SevenGo,Go,0.050517647,2.5132176,2.635483747,1.499936206,0,3,3,0.242530719,0.242530719,0.357,0.126
3,1,324,SevenGo,Go,0.064951261,2.51054501,2.5132176,-0.060762191,0,3,4,0.727592158,0.727592158,0.357,0.126
3,1,258,SevenGo,Go,0.079384874,2.411619706,2.51054501,-0.094877168,0,3,5,1.212653597,1.212653597,0.357,0.126
3,1,359,SevenGo,Go,0.093818488,2.555094449,2.411619706,-1.35763524,0,3,6,1.697715035,1.697715035,0.357,0.126
3,1,0,SevenGo,NoGo,0.108252102,0,2.555094449,0.473785859,0,3,7,2.182776474,2.182776474,0.357,0.126
3,1,296,ThreeGo,Go,0.122685715,2.471291711,NA,NA,0,3,0,-1.212653597,-1.212653597,0.357,0.126
3,1,358,ThreeGo,Go,0.137119329,2.553883027,2.471291711,-0.595936232,0,3,1,-0.727592158,-0.727592158,0.357,0.126
3,1,331,ThreeGo,Go,0.151552942,2.519827994,2.553883027,0.458322345,0,3,2,-0.242530719,-0.242530719,0.357,0.126
3,1,0,ThreeGo,NoGo,0.165986556,0,2.519827994,0.023617918,0,3,3,0.242530719,0.242530719,0.357,0.126
3,1,245,FiveGo,Go,0.180420169,2.389166084,NA,NA,0,3,0,-1.212653597,-1.212653597,0.357,0.126
3,1,307,FiveGo,Go,0.194853783,2.487138375,2.389166084,-1.644250401,0,3,1,-0.727592158,-0.727592158,0.357,0.126
3,1,408,FiveGo,Go,0.209287396,2.610660163,2.487138375,-0.393657315,0,3,2,-0.242530719,-0.242530719,0.357,0.126
3,1,318,FiveGo,Go,0.22372101,2.50242712,2.610660163,1.183069041,0,3,3,0.242530719,0.242530719,0.357,0.126
3,1,348,FiveGo,Go,0.238154623,2.541579244,2.50242712,-0.198500113,0,3,4,0.727592158,0.727592158,0.357,0.126
3,1,0,FiveGo,NoGo,0.252588237,0,2.541579244,0.301267474,0,3,5,1.212653597,1.212653597,0.357,0.126
3,1,268,OneGo,Go,0.26702185,2.428134794,NA,NA,0,3,0,-1.212653597,-1.212653597,0.357,0.126
3,1,0,OneGo,NoGo,0.281455464,0,2.428134794,-1.146824054,0,3,1,-0.727592158,-0.727592158,0.357,0.126
3,1,374,SevenGo,Go,0.295889077,2.572871602,NA,NA,0,3,0,-1.212653597,-1.212653597,0.357,0.126
3,1,316,SevenGo,Go,0.310322691,2.499687083,2.572871602,0.700707014,0,3,1,-0.727592158,-0.727592158,0.357,0.126
3,1,313,SevenGo,Go,0.324756305,2.495544338,2.499687083,-0.233476041,0,3,2,-0.242530719,-0.242530719,0.357,0.126
3,1,351,SevenGo,Go,0.339189918,2.545307116,2.495544338,-0.2863572,0,3,3,0.242530719,0.242530719,0.357,0.126
3,1,485,SevenGo,Go,0.353623532,2.685741739,2.545307116,0.348852883,0,3,4,0.727592158,0.727592158,0.357,0.126
3,1,403,SevenGo,Go,0.368057145,2.605305046,2.685741739,2.141467565,0,3,5,1.212653597,1.212653597,0.357,0.126
3,1,424,SevenGo,Go,0.382490759,2.627365857,2.605305046,1.114712242,0,3,6,1.697715035,1.697715035,0.357,0.126
3,1,0,SevenGo,NoGo,0.396924372,0,2.627365857,1.396313261,0,3,7,2.182776474,2.182776474,0.357,0.126
3,1,249,FiveGo,Go,0.411357986,2.396199347,NA,NA,0,3,0,-1.212653597,-1.212653597,0.357,0.126
3,1,520,FiveGo,Go,0.425791599,2.716003344,2.396199347,-1.554472468,0,3,1,-0.727592158,-0.727592158,0.357,0.126
3,1,285,FiveGo,Go,0.440225213,2.45484486,2.716003344,2.527749784,0,3,2,-0.242530719,-0.242530719,0.357,0.126
3,1,259,FiveGo,Go,0.454658826,2.413299764,2.45484486,-0.805876389,0,3,3,0.242530719,0.242530719,0.357,0.126
3,1,265,FiveGo,Go,0.46909244,2.423245874,2.413299764,-1.336189697,0,3,4,0.727592158,0.727592158,0.357,0.126
3,1,0,FiveGo,NoGo,0.483526053,0,2.423245874,-1.209229961,0,3,5,1.212653597,1.212653597,0.357,0.126
3,1,297,OneGo,Go,0.497959667,2.472756449,NA,NA,0,3,0,-1.212653597,-1.212653597,0.357,0.126
3,1,0,OneGo,NoGo,0.51239328,0,2.472756449,-0.577239195,0,3,1,-0.727592158,-0.727592158,0.357,0.126
3,1,250,ThreeGo,Go,0.526826894,2.397940009,NA,NA,0,3,0,-1.212653597,-1.212653597,0.357,0.126
3,1,576,ThreeGo,Go,0.541260508,2.760422483,2.397940009,-1.532253336,0,3,1,-0.727592158,-0.727592158,0.357,0.126
3,1,454,ThreeGo,Go,0.555694121,2.657055853,2.760422483,3.09474958,0,3,2,-0.242530719,-0.242530719,0.357,0.126
3,1,0,ThreeGo,NoGo,0.570127735,0,2.657055853,1.775299029,0,3,3,0.242530719,0.242530719,0.357,0.126
3,1,NA,OneGo,Go,0.584561348,NA,NA,NA,0,3,0,-1.212653597,-1.212653597,0.357,0.126
3,0,322,OneGo,NoGo,0.598994962,2.507855872,NA,NA,0,3,1,-0.727592158,-0.727592158,0.357,0.126
3,1,310,FiveGo,Go,0.613428575,2.491361694,2.507855872,-0.129203384,1,3,0,-1.212653597,-1.212653597,0.357,0.126
3,1,292,FiveGo,Go,0.627862189,2.465382851,2.491361694,-0.339747657,0,3,1,-0.727592158,-0.727592158,0.357,0.126
3,1,313,FiveGo,Go,0.642295802,2.495544338,2.465382851,-0.671361425,0,3,2,-0.242530719,-0.242530719,0.357,0.126
3,1,271,FiveGo,Go,0.656729416,2.432969291,2.495544338,-0.2863572,0,3,3,0.242530719,0.242530719,0.357,0.126
3,1,285,FiveGo,Go,0.671163029,2.45484486,2.432969291,-1.085112847,0,3,4,0.727592158,0.727592158,0.357,0.126
3,0,227,FiveGo,NoGo,0.685596643,2.356025857,2.45484486,-0.805876389,0,3,5,1.212653597,1.212653597,0.357,0.126
3,1,477,ThreeGo,Go,0.700030256,2.678518379,2.356025857,-2.067277549,1,3,0,-1.212653597,-1.212653597,0.357,0.126
3,1,307,ThreeGo,Go,0.71446387,2.487138375,2.678518379,2.049263092,0,3,1,-0.727592158,-0.727592158,0.357,0.126
3,1,273,ThreeGo,Go,0.728897483,2.436162647,2.487138375,-0.393657315,0,3,2,-0.242530719,-0.242530719,0.357,0.126
3,1,0,ThreeGo,NoGo,0.743331097,0,2.436162647,-1.044350412,0,3,3,0.242530719,0.242530719,0.357,0.126
3,1,250,SevenGo,Go,0.757764711,2.397940009,NA,NA,0,3,0,-1.212653597,-1.212653597,0.357,0.126
3,1,320,SevenGo,Go,0.772198324,2.505149978,2.397940009,-1.532253336,0,3,1,-0.727592158,-0.727592158,0.357,0.126
3,1,318,SevenGo,Go,0.786631938,2.50242712,2.505149978,-0.163743472,0,3,2,-0.242530719,-0.242530719,0.357,0.126
3,1,308,SevenGo,Go,0.801065551,2.488550717,2.50242712,-0.198500113,0,3,3,0.242530719,0.242530719,0.357,0.126
3,1,281,SevenGo,Go,0.815499165,2.44870632,2.488550717,-0.375629116,0,3,4,0.727592158,0.727592158,0.357,0.126
3,1,255,SevenGo,Go,0.829932778,2.40654018,2.44870632,-0.884233399,0,3,5,1.212653597,1.212653597,0.357,0.126
3,1,253,SevenGo,Go,0.844366392,2.403120521,2.40654018,-1.42247418,0,3,6,1.697715035,1.697715035,0.357,0.126
3,0,299,SevenGo,NoGo,0.858800005,2.475671188,2.403120521,-1.466125321,0,3,7,2.182776474,2.182776474,0.357,0.126
3,1,277,SevenGo,Go,0.873233619,2.442479769,2.475671188,-0.540033242,1,3,0,-1.212653597,-1.212653597,0.357,0.126
3,1,291,SevenGo,Go,0.887667232,2.463892989,2.442479769,-0.963713846,0,3,1,-0.727592158,-0.727592158,0.357,0.126
3,1,329,SevenGo,Go,0.902100846,2.517195898,2.463892989,-0.690379166,0,3,2,-0.242530719,-0.242530719,0.357,0.126
3,1,287,SevenGo,Go,0.916534459,2.457881897,2.517195898,-0.009980161,0,3,3,0.242530719,0.242530719,0.357,0.126
3,1,302,SevenGo,Go,0.930968073,2.480006943,2.457881897,-0.767109335,0,3,4,0.727592158,0.727592158,0.357,0.126
3,1,355,SevenGo,Go,0.945401687,2.550228353,2.480006943,-0.484688361,0,3,5,1.212653597,1.212653597,0.357,0.126
3,1,321,SevenGo,Go,0.9598353,2.506505032,2.550228353,0.411671303,0,3,6,1.697715035,1.697715035,0.357,0.126
3,1,0,SevenGo,NoGo,0.974268914,0,2.506505032,-0.146446527,0,3,7,2.182776474,2.182776474,0.357,0.126
3,1,257,OneGo,Go,0.988702527,2.409933123,NA,NA,0,3,0,-1.212653597,-1.212653597,0.357,0.126
3,1,0,OneGo,NoGo,1.003136141,0,2.409933123,-1.379164068,0,3,1,-0.727592158,-0.727592158,0.357,0.126
3,1,322,ThreeGo,Go,1.017569754,2.507855872,NA,NA,0,3,0,-1.212653597,-1.212653597,0.357,0.126
3,1,321,ThreeGo,Go,1.032003368,2.506505032,2.507855872,-0.129203384,0,3,1,-0.727592158,-0.727592158,0.357,0.126
3,1,302,ThreeGo,Go,1.046436981,2.480006943,2.506505032,-0.146446527,0,3,2,-0.242530719,-0.242530719,0.357,0.126
3,1,0,ThreeGo,NoGo,1.060870595,0,2.480006943,-0.484688361,0,3,3,0.242530719,0.242530719,0.357,0.126
3,1,295,FiveGo,Go,1.075304208,2.469822016,NA,NA,0,3,0,-1.212653597,-1.212653597,0.357,0.126
3,1,405,FiveGo,Go,1.089737822,2.607455023,2.469822016,-0.614696542,0,3,1,-0.727592158,-0.727592158,0.357,0.126
3,1,298,FiveGo,Go,1.104171435,2.474216264,2.607455023,1.14215619,0,3,2,-0.242530719,-0.242530719,0.357,0.126
3,1,352,FiveGo,Go,1.118605049,2.546542663,2.474216264,-0.558605006,0,3,3,0.242530719,0.242530719,0.357,0.126
3,1,374,FiveGo,Go,1.133038662,2.572871602,2.546542663,0.364624348,0,3,4,0.727592158,0.727592158,0.357,0.126
3,1,0,FiveGo,NoGo,1.147472276,0,2.572871602,0.700707014,0,3,5,1.212653597,1.212653597,0.357,0.126
3,1,278,ThreeGo,Go,1.16190589,2.444044796,NA,NA,0,3,0,-1.212653597,-1.212653597,0.357,0.126
3,1,285,ThreeGo,Go,1.176339503,2.45484486,2.444044796,-0.943736649,0,3,1,-0.727592158,-0.727592158,0.357,0.126
3,1,459,ThreeGo,Go,1.190773117,2.661812686,2.45484486,-0.805876389,0,3,2,-0.242530719,-0.242530719,0.357,0.126
3,1,0,ThreeGo,NoGo,1.20520673,0,2.661812686,1.836018872,0,3,3,0.242530719,0.242530719,0.357,0.126
3,1,283,FiveGo,Go,1.219640344,2.451786436,NA,NA,0,3,0,-1.212653597,-1.212653597,0.357,0.126
3,1,329,FiveGo,Go,1.234073957,2.517195898,2.451786436,-0.844916453,0,3,1,-0.727592158,-0.727592158,0.357,0.126
3,1,271,FiveGo,Go,1.248507571,2.432969291,2.517195898,-0.009980161,0,3,2,-0.242530719,-0.242530719,0.357,0.126
3,1,405,FiveGo,Go,1.262941184,2.607455023,2.432969291,-1.085112847,0,3,3,0.242530719,0.242530719,0.357,0.126
3,1,322,FiveGo,Go,1.277374798,2.507855872,2.607455023,1.14215619,0,3,4,0.727592158,0.727592158,0.357,0.126
3,1,0,FiveGo,NoGo,1.291808411,0,2.507855872,-0.129203384,0,3,5,1.212653597,1.212653597,0.357,0.126
3,1,284,OneGo,Go,1.306242025,2.45331834,NA,NA,0,3,0,-1.212653597,-1.212653597,0.357,0.126
3,1,0,OneGo,NoGo,1.320675638,0,2.45331834,-0.825362055,0,3,1,-0.727592158,-0.727592158,0.357,0.126
3,1,404,SevenGo,Go,1.335109252,2.606381365,NA,NA,0,3,0,-1.212653597,-1.212653597,0.357,0.126
3,1,306,SevenGo,Go,1.349542865,2.485721426,2.606381365,1.128451198,0,3,1,-0.727592158,-0.727592158,0.357,0.126
3,1,352,SevenGo,Go,1.363976479,2.546542663,2.485721426,-0.411744333,0,3,2,-0.242530719,-0.242530719,0.357,0.126
3,1,270,SevenGo,Go,1.378410093,2.431363764,2.546542663,0.364624348,0,3,3,0.242530719,0.242530719,0.357,0.126
3,1,315,SevenGo,Go,1.392843706,2.498310554,2.431363764,-1.105607015,0,3,4,0.727592158,0.727592158,0.357,0.126
3,1,337,SevenGo,Go,1.40727732,2.527629901,2.498310554,-0.251047105,0,3,5,1.212653597,1.212653597,0.357,0.126
3,1,287,SevenGo,Go,1.421710933,2.457881897,2.527629901,0.123207414,0,3,6,1.697715035,1.697715035,0.357,0.126
3,1,0,SevenGo,NoGo,1.436144547,0,2.457881897,-0.767109335,0,3,7,2.182776474,2.182776474,0.357,0.126
3,1,312,FiveGo,Go,1.45057816,2.494154594,NA,NA,0,3,0,-1.212653597,-1.212653597,0.357,0.126
3,1,334,FiveGo,Go,1.465011774,2.523746467,2.494154594,-0.304096947,0,3,1,-0.727592158,-0.727592158,0.357,0.126
3,1,324,FiveGo,Go,1.479445387,2.51054501,2.523746467,0.073636298,0,3,2,-0.242530719,-0.242530719,0.357,0.126
3,1,458,FiveGo,Go,1.493879001,2.660865478,2.51054501,-0.094877168,0,3,3,0.242530719,0.242530719,0.357,0.126
3,1,303,FiveGo,Go,1.508312614,2.481442629,2.660865478,1.823927992,0,3,4,0.727592158,0.727592158,0.357,0.126
3,1,0,FiveGo,NoGo,1.522746228,0,2.481442629,-0.466362176,0,3,5,1.212653597,1.212653597,0.357,0.126
3,1,224,SevenGo,Go,1.537179841,2.350248018,NA,NA,0,3,0,-1.212653597,-1.212653597,0.357,0.126
3,1,254,SevenGo,Go,1.551613455,2.404833717,2.350248018,-2.141030294,0,3,1,-0.727592158,-0.727592158,0.357,0.126
3,1,211,SevenGo,Go,1.566047068,2.324282455,2.404833717,-1.444256787,0,3,2,-0.242530719,-0.242530719,0.357,0.126
3,1,417,SevenGo,Go,1.580480682,2.620136055,2.324282455,-2.472474554,0,3,3,0.242530719,0.242530719,0.357,0.126
3,1,351,SevenGo,Go,1.594914296,2.545307116,2.620136055,1.304026556,0,3,4,0.727592158,0.727592158,0.357,0.126
3,1,253,SevenGo,Go,1.609347909,2.403120521,2.545307116,0.348852883,0,3,5,1.212653597,1.212653597,0.357,0.126
3,1,354,SevenGo,Go,1.623781523,2.549003262,2.403120521,-1.466125321,0,3,6,1.697715035,1.697715035,0.357,0.126
3,0,408,SevenGo,NoGo,1.638215136,2.610660163,2.549003262,0.396033306,0,3,7,2.182776474,2.182776474,0.357,0.126
3,1,300,ThreeGo,Go,1.65264875,2.477121255,2.610660163,1.183069041,1,3,0,-1.212653597,-1.212653597,0.357,0.126
3,1,242,ThreeGo,Go,1.667082363,2.383815366,2.477121255,-0.521523488,0,3,1,-0.727592158,-0.727592158,0.357,0.126
3,1,279,ThreeGo,Go,1.681515977,2.445604203,2.383815366,-1.712551053,0,3,2,-0.242530719,-0.242530719,0.357,0.126
3,1,0,ThreeGo,NoGo,1.69594959,0,2.445604203,-0.923831183,0,3,3,0.242530719,0.242530719,0.357,0.126
3,1,296,OneGo,Go,1.710383204,2.471291711,NA,NA,0,3,0,-1.212653597,-1.212653597,0.357,0.126
3,0,302,OneGo,NoGo,1.724816817,2.480006943,2.471291711,-0.595936232,0,3,1,-0.727592158,-0.727592158,0.357,0.126
4,1,412,SevenGo,Go,-1.724816817,2.614897216,NA,NA,NA,4,0,-1.212653597,-1.212653597,0.443,0.411
4,1,354,SevenGo,Go,-1.710383204,2.549003262,2.614897216,1.919454976,0,4,1,-0.727592158,-0.727592158,0.443,0.411
4,1,352,SevenGo,Go,-1.69594959,2.546542663,2.549003262,0.694383787,0,4,2,-0.242530719,-0.242530719,0.443,0.411
4,1,326,SevenGo,Go,-1.681515977,2.5132176,2.546542663,0.648637429,0,4,3,0.242530719,0.242530719,0.443,0.411
4,1,363,SevenGo,Go,-1.667082363,2.559906625,2.5132176,0.029072619,0,4,4,0.727592158,0.727592158,0.443,0.411
4,1,345,SevenGo,Go,-1.65264875,2.537819095,2.559906625,0.897094279,0,4,5,1.212653597,1.212653597,0.443,0.411
4,1,383,SevenGo,Go,-1.638215136,2.583198774,2.537819095,0.486452711,0,4,6,1.697715035,1.697715035,0.443,0.411
4,1,0,SevenGo,NoGo,-1.623781523,0,2.583198774,1.330131589,0,4,7,2.182776474,2.182776474,0.443,0.411
4,1,327,OneGo,Go,-1.609347909,2.514547753,NA,NA,0,4,0,-1.212653597,-1.212653597,0.443,0.411
4,1,0,OneGo,NoGo,-1.594914296,0,2.514547753,0.053802227,0,4,1,-0.727592158,-0.727592158,0.443,0.411
4,1,377,ThreeGo,Go,-1.580480682,2.57634135,NA,NA,0,4,0,-1.212653597,-1.212653597,0.443,0.411
4,1,447,ThreeGo,Go,-1.566047068,2.650307523,2.57634135,1.202641406,0,4,1,-0.727592158,-0.727592158,0.443,0.411
4,1,331,ThreeGo,Go,-1.551613455,2.519827994,2.650307523,2.577787712,0,4,2,-0.242530719,-0.242530719,0.443,0.411
4,0,322,ThreeGo,NoGo,-1.537179841,2.507855872,2.519827994,0.151970129,0,4,3,0.242530719,0.242530719,0.443,0.411
4,1,341,FiveGo,Go,-1.522746228,2.532754379,2.507855872,-0.070610258,1,4,0,-1.212653597,-1.212653597,0.443,0.411
4,1,363,FiveGo,Go,-1.508312614,2.559906625,2.532754379,0.392291755,0,4,1,-0.727592158,-0.727592158,0.443,0.411
4,1,337,FiveGo,Go,-1.493879001,2.527629901,2.559906625,0.897094279,0,4,2,-0.242530719,-0.242530719,0.443,0.411
4,1,382,FiveGo,Go,-1.479445387,2.582063363,2.527629901,0.297019728,0,4,3,0.242530719,0.242530719,0.443,0.411
4,1,348,FiveGo,Go,-1.465011774,2.541579244,2.582063363,1.30902253,0,4,4,0.727592158,0.727592158,0.443,0.411
4,0,306,FiveGo,NoGo,-1.45057816,2.485721426,2.541579244,0.556359733,0,4,5,1.212653597,1.212653597,0.443,0.411
4,1,366,ThreeGo,Go,-1.436144547,2.563481085,2.485721426,-0.482124054,1,4,0,-1.212653597,-1.212653597,0.443,0.411
4,1,379,ThreeGo,Go,-1.421710933,2.57863921,2.563481085,0.963549062,0,4,1,-0.727592158,-0.727592158,0.443,0.411
4,1,313,ThreeGo,Go,-1.40727732,2.495544338,2.57863921,1.245362196,0,4,2,-0.242530719,-0.242530719,0.443,0.411
4,1,0,ThreeGo,NoGo,-1.392843706,0,2.495544338,-0.299500845,0,4,3,0.242530719,0.242530719,0.443,0.411
4,1,346,SevenGo,Go,-1.378410093,2.539076099,NA,NA,0,4,0,-1.212653597,-1.212653597,0.443,0.411
4,1,367,SevenGo,Go,-1.363976479,2.564666064,2.539076099,0.509822367,0,4,1,-0.727592158,-0.727592158,0.443,0.411
4,1,349,SevenGo,Go,-1.349542865,2.542825427,2.564666064,0.985579664,0,4,2,-0.242530719,-0.242530719,0.443,0.411
4,1,347,SevenGo,Go,-1.335109252,2.540329475,2.542825427,0.579528215,0,4,3,0.242530719,0.242530719,0.443,0.411
4,1,345,SevenGo,Go,-1.320675638,2.537819095,2.540329475,0.533124578,0,4,4,0.727592158,0.727592158,0.443,0.411
4,1,326,SevenGo,Go,-1.306242025,2.5132176,2.537819095,0.486452711,0,4,5,1.212653597,1.212653597,0.443,0.411
4,1,396,SevenGo,Go,-1.291808411,2.597695186,2.5132176,0.029072619,0,4,6,1.697715035,1.697715035,0.443,0.411
4,1,0,SevenGo,NoGo,-1.277374798,0,2.597695186,1.599642456,0,4,7,2.182776474,2.182776474,0.443,0.411
4,1,358,OneGo,Go,-1.262941184,2.553883027,NA,NA,0,4,0,-1.212653597,-1.212653597,0.443,0.411
4,1,0,OneGo,NoGo,-1.248507571,0,2.553883027,0.785106208,0,4,1,-0.727592158,-0.727592158,0.443,0.411
4,1,390,FiveGo,Go,-1.234073957,2.591064607,NA,NA,0,4,0,-1.212653597,-1.212653597,0.443,0.411
4,1,380,FiveGo,Go,-1.219640344,2.579783597,2.591064607,1.476369672,0,4,1,-0.727592158,-0.727592158,0.443,0.411
4,1,346,FiveGo,Go,-1.20520673,2.539076099,2.579783597,1.266638126,0,4,2,-0.242530719,-0.242530719,0.443,0.411
4,1,351,FiveGo,Go,-1.190773117,2.545307116,2.539076099,0.509822367,0,4,3,0.242530719,0.242530719,0.443,0.411
4,1,333,FiveGo,Go,-1.176339503,2.522444234,2.545307116,0.625666686,0,4,4,0.727592158,0.727592158,0.443,0.411
4,1,0,FiveGo,NoGo,-1.16190589,0,2.522444234,0.200610099,0,4,5,1.212653597,1.212653597,0.443,0.411
4,1,326,SevenGo,Go,-1.147472276,2.5132176,NA,NA,0,4,0,-1.212653597,-1.212653597,0.443,0.411
4,1,340,SevenGo,Go,-1.133038662,2.531478917,2.5132176,0.029072619,0,4,1,-0.727592158,-0.727592158,0.443,0.411
4,1,362,SevenGo,Go,-1.118605049,2.558708571,2.531478917,0.368578931,0,4,2,-0.242530719,-0.242530719,0.443,0.411
4,1,384,SevenGo,Go,-1.104171435,2.584331224,2.558708571,0.874820581,0,4,3,0.242530719,0.242530719,0.443,0.411
4,1,310,SevenGo,Go,-1.089737822,2.491361694,2.584331224,1.351185605,0,4,4,0.727592158,0.727592158,0.443,0.411
4,1,323,SevenGo,Go,-1.075304208,2.509202522,2.491361694,-0.377262703,0,4,5,1.212653597,1.212653597,0.443,0.411
4,1,265,SevenGo,Go,-1.060870595,2.423245874,2.509202522,-0.045573926,0,4,6,1.697715035,1.697715035,0.443,0.411
4,1,0,SevenGo,NoGo,-1.046436981,0,2.423245874,-1.643641838,0,4,7,2.182776474,2.182776474,0.443,0.411
4,1,394,FiveGo,Go,-1.032003368,2.595496222,NA,NA,0,4,0,-1.212653597,-1.212653597,0.443,0.411
4,1,367,FiveGo,Go,-1.017569754,2.564666064,2.595496222,1.55876029,0,4,1,-0.727592158,-0.727592158,0.443,0.411
4,1,357,FiveGo,Go,-1.003136141,2.552668216,2.564666064,0.985579664,0,4,2,-0.242530719,-0.242530719,0.443,0.411
4,1,347,FiveGo,Go,-0.988702527,2.540329475,2.552668216,0.762520989,0,4,3,0.242530719,0.242530719,0.443,0.411
4,1,370,FiveGo,Go,-0.974268914,2.568201724,2.540329475,0.533124578,0,4,4,0.727592158,0.727592158,0.443,0.411
4,1,0,FiveGo,NoGo,-0.9598353,0,2.568201724,1.051313084,0,4,5,1.212653597,1.212653597,0.443,0.411
4,1,314,OneGo,Go,-0.945401687,2.496929648,NA,NA,0,4,0,-1.212653597,-1.212653597,0.443,0.411
4,1,0,OneGo,NoGo,-0.930968073,0,2.496929648,-0.273745765,0,4,1,-0.727592158,-0.727592158,0.443,0.411
4,1,315,ThreeGo,Go,-0.916534459,2.498310554,NA,NA,0,4,0,-1.212653597,-1.212653597,0.443,0.411
4,1,368,ThreeGo,Go,-0.902100846,2.565847819,2.498310554,-0.248072578,0,4,1,-0.727592158,-0.727592158,0.443,0.411
4,1,318,ThreeGo,Go,-0.887667232,2.50242712,2.565847819,1.007550318,0,4,2,-0.242530719,-0.242530719,0.443,0.411
4,1,0,ThreeGo,NoGo,-0.873233619,0,2.50242712,-0.171539204,0,4,3,0.242530719,0.242530719,0.443,0.411
4,1,320,ThreeGo,Go,-0.858800005,2.505149978,NA,NA,0,4,0,-1.212653597,-1.212653597,0.443,0.411
4,1,333,ThreeGo,Go,-0.844366392,2.522444234,2.505149978,-0.120917029,0,4,1,-0.727592158,-0.727592158,0.443,0.411
4,1,283,ThreeGo,Go,-0.829932778,2.451786436,2.522444234,0.200610099,0,4,2,-0.242530719,-0.242530719,0.443,0.411
4,1,0,ThreeGo,NoGo,-0.815499165,0,2.451786436,-1.113028366,0,4,3,0.242530719,0.242530719,0.443,0.411
4,1,340,OneGo,Go,-0.801065551,2.531478917,NA,NA,0,4,0,-1.212653597,-1.212653597,0.443,0.411
4,1,0,OneGo,NoGo,-0.786631938,0,2.531478917,0.368578931,0,4,1,-0.727592158,-0.727592158,0.443,0.411
4,1,309,SevenGo,Go,-0.772198324,2.489958479,NA,NA,0,4,0,-1.212653597,-1.212653597,0.443,0.411
4,1,363,SevenGo,Go,-0.757764711,2.559906625,2.489958479,-0.403350643,0,4,1,-0.727592158,-0.727592158,0.443,0.411
4,1,353,SevenGo,Go,-0.743331097,2.547774705,2.559906625,0.897094279,0,4,2,-0.242530719,-0.242530719,0.443,0.411
4,1,342,SevenGo,Go,-0.728897483,2.534026106,2.547774705,0.671543006,0,4,3,0.242530719,0.242530719,0.443,0.411
4,1,340,SevenGo,Go,-0.71446387,2.531478917,2.534026106,0.415935141,0,4,4,0.727592158,0.727592158,0.443,0.411
4,1,410,SevenGo,Go,-0.700030256,2.612783857,2.531478917,0.368578931,0,4,5,1.212653597,1.212653597,0.443,0.411
4,1,288,SevenGo,Go,-0.685596643,2.459392488,2.612783857,1.880164336,0,4,6,1.697715035,1.697715035,0.443,0.411
4,1,0,SevenGo,NoGo,-0.671163029,0,2.459392488,-0.971620014,0,4,7,2.182776474,2.182776474,0.443,0.411
4,1,288,FiveGo,Go,-0.656729416,2.459392488,NA,NA,0,4,0,-1.212653597,-1.212653597,0.443,0.411
4,1,318,FiveGo,Go,-0.642295802,2.50242712,2.459392488,-0.971620014,0,4,1,-0.727592158,-0.727592158,0.443,0.411
4,1,324,FiveGo,Go,-0.627862189,2.51054501,2.50242712,-0.171539204,0,4,2,-0.242530719,-0.242530719,0.443,0.411
4,1,377,FiveGo,Go,-0.613428575,2.57634135,2.51054501,-0.020614987,0,4,3,0.242530719,0.242530719,0.443,0.411
4,1,367,FiveGo,Go,-0.598994962,2.564666064,2.57634135,1.202641406,0,4,4,0.727592158,0.727592158,0.443,0.411
4,1,0,FiveGo,NoGo,-0.584561348,0,2.564666064,0.985579664,0,4,5,1.212653597,1.212653597,0.443,0.411
4,1,354,FiveGo,Go,-0.570127735,2.549003262,NA,NA,0,4,0,-1.212653597,-1.212653597,0.443,0.411
4,1,312,FiveGo,Go,-0.555694121,2.494154594,2.549003262,0.694383787,0,4,1,-0.727592158,-0.727592158,0.443,0.411
4,1,318,FiveGo,Go,-0.541260508,2.50242712,2.494154594,-0.325338341,0,4,2,-0.242530719,-0.242530719,0.443,0.411
4,1,324,FiveGo,Go,-0.526826894,2.51054501,2.50242712,-0.171539204,0,4,3,0.242530719,0.242530719,0.443,0.411
4,1,353,FiveGo,Go,-0.51239328,2.547774705,2.51054501,-0.020614987,0,4,4,0.727592158,0.727592158,0.443,0.411
4,1,0,FiveGo,NoGo,-0.497959667,0,2.547774705,0.671543006,0,4,5,1.212653597,1.212653597,0.443,0.411
4,1,298,OneGo,Go,-0.483526053,2.474216264,NA,NA,0,4,0,-1.212653597,-1.212653597,0.443,0.411
4,1,0,OneGo,NoGo,-0.46909244,0,2.474216264,-0.696022934,0,4,1,-0.727592158,-0.727592158,0.443,0.411
4,1,331,SevenGo,Go,-0.454658826,2.519827994,NA,NA,0,4,0,-1.212653597,-1.212653597,0.443,0.411
4,1,377,SevenGo,Go,-0.440225213,2.57634135,2.519827994,0.151970129,0,4,1,-0.727592158,-0.727592158,0.443,0.411
4,1,335,SevenGo,Go,-0.425791599,2.525044807,2.57634135,1.202641406,0,4,2,-0.242530719,-0.242530719,0.443,0.411
4,1,349,SevenGo,Go,-0.411357986,2.542825427,2.525044807,0.24895881,0,4,3,0.242530719,0.242530719,0.443,0.411
4,1,330,SevenGo,Go,-0.396924372,2.51851394,2.542825427,0.579528215,0,4,4,0.727592158,0.727592158,0.443,0.411
4,1,336,SevenGo,Go,-0.382490759,2.526339277,2.51851394,0.127539822,0,4,5,1.212653597,1.212653597,0.443,0.411
4,1,430,SevenGo,Go,-0.368057145,2.633468456,2.526339277,0.273025029,0,4,6,1.697715035,1.697715035,0.443,0.411
4,1,0,SevenGo,NoGo,-0.353623532,0,2.633468456,2.264723231,0,4,7,2.182776474,2.182776474,0.443,0.411
4,1,286,ThreeGo,Go,-0.339189918,2.456366033,NA,NA,0,4,0,-1.212653597,-1.212653597,0.443,0.411
4,1,316,ThreeGo,Go,-0.324756305,2.499687083,2.456366033,-1.027886517,0,4,1,-0.727592158,-0.727592158,0.443,0.411
4,1,298,ThreeGo,Go,-0.310322691,2.474216264,2.499687083,-0.222480764,0,4,2,-0.242530719,-0.242530719,0.443,0.411
4,0,288,ThreeGo,NoGo,-0.295889077,2.459392488,2.474216264,-0.696022934,0,4,3,0.242530719,0.242530719,0.443,0.411
4,1,323,ThreeGo,Go,-0.281455464,2.509202522,2.459392488,-0.971620014,1,4,0,-1.212653597,-1.212653597,0.443,0.411
4,1,305,ThreeGo,Go,-0.26702185,2.484299839,2.509202522,-0.045573926,0,4,1,-0.727592158,-0.727592158,0.443,0.411
4,1,319,ThreeGo,Go,-0.252588237,2.503790683,2.484299839,-0.508553572,0,4,2,-0.242530719,-0.242530719,0.443,0.411
4,0,301,ThreeGo,NoGo,-0.238154623,2.478566496,2.503790683,-0.146188444,0,4,3,0.242530719,0.242530719,0.443,0.411
4,1,327,FiveGo,Go,-0.22372101,2.514547753,2.478566496,-0.615145358,1,4,0,-1.212653597,-1.212653597,0.443,0.411
4,1,341,FiveGo,Go,-0.209287396,2.532754379,2.514547753,0.053802227,0,4,1,-0.727592158,-0.727592158,0.443,0.411
4,1,331,FiveGo,Go,-0.194853783,2.519827994,2.532754379,0.392291755,0,4,2,-0.242530719,-0.242530719,0.443,0.411
4,1,337,FiveGo,Go,-0.180420169,2.527629901,2.519827994,0.151970129,0,4,3,0.242530719,0.242530719,0.443,0.411
4,1,390,FiveGo,Go,-0.165986556,2.591064607,2.527629901,0.297019728,0,4,4,0.727592158,0.727592158,0.443,0.411
4,1,0,FiveGo,NoGo,-0.151552942,0,2.591064607,1.476369672,0,4,5,1.212653597,1.212653597,0.443,0.411
4,1,296,OneGo,Go,-0.137119329,2.471291711,NA,NA,0,4,0,-1.212653597,-1.212653597,0.443,0.411
4,1,0,OneGo,NoGo,-0.122685715,0,2.471291711,-0.750394928,0,4,1,-0.727592158,-0.727592158,0.443,0.411
4,1,296,SevenGo,Go,-0.108252102,2.471291711,NA,NA,0,4,0,-1.212653597,-1.212653597,0.443,0.411
4,1,318,SevenGo,Go,-0.093818488,2.50242712,2.471291711,-0.750394928,0,4,1,-0.727592158,-0.727592158,0.443,0.411
4,1,324,SevenGo,Go,-0.079384874,2.51054501,2.50242712,-0.171539204,0,4,2,-0.242530719,-0.242530719,0.443,0.411
4,1,338,SevenGo,Go,-0.064951261,2.5289167,2.51054501,-0.020614987,0,4,3,0.242530719,0.242530719,0.443,0.411
4,1,311,SevenGo,Go,-0.050517647,2.492760389,2.5289167,0.320943333,0,4,4,0.727592158,0.727592158,0.443,0.411
4,1,349,SevenGo,Go,-0.036084034,2.542825427,2.492760389,-0.351258782,0,4,5,1.212653597,1.212653597,0.443,0.411
4,1,323,SevenGo,Go,-0.02165042,2.509202522,2.542825427,0.579528215,0,4,6,1.697715035,1.697715035,0.443,0.411
4,1,0,SevenGo,NoGo,-0.007216807,0,2.509202522,-0.045573926,0,4,7,2.182776474,2.182776474,0.443,0.411
4,1,301,ThreeGo,Go,0.007216807,2.478566496,NA,NA,0,4,0,-1.212653597,-1.212653597,0.443,0.411
4,1,394,ThreeGo,Go,0.02165042,2.595496222,2.478566496,-0.615145358,0,4,1,-0.727592158,-0.727592158,0.443,0.411
4,1,304,ThreeGo,Go,0.036084034,2.482873584,2.595496222,1.55876029,0,4,2,-0.242530719,-0.242530719,0.443,0.411
4,1,0,ThreeGo,NoGo,0.050517647,0,2.482873584,-0.535069886,0,4,3,0.242530719,0.242530719,0.443,0.411
4,1,281,OneGo,Go,0.064951261,2.44870632,NA,NA,0,4,0,-1.212653597,-1.212653597,0.443,0.411
4,0,294,OneGo,NoGo,0.079384874,2.46834733,2.44870632,-1.17029251,0,4,1,-0.727592158,-0.727592158,0.443,0.411
4,1,274,SevenGo,Go,0.093818488,2.437750563,2.46834733,-0.805135548,1,4,0,-1.212653597,-1.212653597,0.443,0.411
4,1,400,SevenGo,Go,0.108252102,2.602059991,2.437750563,-1.373977091,0,4,1,-0.727592158,-0.727592158,0.443,0.411
4,1,382,SevenGo,Go,0.122685715,2.582063363,2.602059991,1.680790983,0,4,2,-0.242530719,-0.242530719,0.443,0.411
4,1,491,SevenGo,Go,0.137119329,2.691081492,2.582063363,1.30902253,0,4,3,0.242530719,0.242530719,0.443,0.411
4,1,361,SevenGo,Go,0.151552942,2.557507202,2.691081492,3.335839272,0,4,4,0.727592158,0.727592158,0.443,0.411
4,1,303,SevenGo,Go,0.165986556,2.481442629,2.557507202,0.852485268,0,4,5,1.212653597,1.212653597,0.443,0.411
4,1,348,SevenGo,Go,0.180420169,2.541579244,2.481442629,-0.56167357,0,4,6,1.697715035,1.697715035,0.443,0.411
4,1,0,SevenGo,NoGo,0.194853783,0,2.541579244,0.556359733,0,4,7,2.182776474,2.182776474,0.443,0.411
4,1,333,FiveGo,Go,0.209287396,2.522444234,NA,NA,0,4,0,-1.212653597,-1.212653597,0.443,0.411
4,1,347,FiveGo,Go,0.22372101,2.540329475,2.522444234,0.200610099,0,4,1,-0.727592158,-0.727592158,0.443,0.411
4,1,337,FiveGo,Go,0.238154623,2.527629901,2.540329475,0.533124578,0,4,2,-0.242530719,-0.242530719,0.443,0.411
4,1,342,FiveGo,Go,0.252588237,2.534026106,2.527629901,0.297019728,0,4,3,0.242530719,0.242530719,0.443,0.411
4,1,349,FiveGo,Go,0.26702185,2.542825427,2.534026106,0.415935141,0,4,4,0.727592158,0.727592158,0.443,0.411
4,1,0,FiveGo,NoGo,0.281455464,0,2.542825427,0.579528215,0,4,5,1.212653597,1.212653597,0.443,0.411
4,1,262,OneGo,Go,0.295889077,2.418301291,NA,NA,0,4,0,-1.212653597,-1.212653597,0.443,0.411
4,1,0,OneGo,NoGo,0.310322691,0,2.418301291,-1.735569327,0,4,1,-0.727592158,-0.727592158,0.443,0.411
4,1,294,SevenGo,Go,0.324756305,2.46834733,NA,NA,0,4,0,-1.212653597,-1.212653597,0.443,0.411
4,1,340,SevenGo,Go,0.339189918,2.531478917,2.46834733,-0.805135548,0,4,1,-0.727592158,-0.727592158,0.443,0.411
4,1,322,SevenGo,Go,0.353623532,2.507855872,2.531478917,0.368578931,0,4,2,-0.242530719,-0.242530719,0.443,0.411
4,1,311,SevenGo,Go,0.368057145,2.492760389,2.507855872,-0.070610258,0,4,3,0.242530719,0.242530719,0.443,0.411
4,1,334,SevenGo,Go,0.382490759,2.523746467,2.492760389,-0.351258782,0,4,4,0.727592158,0.727592158,0.443,0.411
4,1,316,SevenGo,Go,0.396924372,2.499687083,2.523746467,0.224820644,0,4,5,1.212653597,1.212653597,0.443,0.411
4,1,306,SevenGo,Go,0.411357986,2.485721426,2.499687083,-0.222480764,0,4,6,1.697715035,1.697715035,0.443,0.411
4,1,0,SevenGo,NoGo,0.425791599,0,2.485721426,-0.482124054,0,4,7,2.182776474,2.182776474,0.443,0.411
4,1,314,FiveGo,Go,0.440225213,2.496929648,NA,NA,0,4,0,-1.212653597,-1.212653597,0.443,0.411
4,1,352,FiveGo,Go,0.454658826,2.546542663,2.496929648,-0.273745765,0,4,1,-0.727592158,-0.727592158,0.443,0.411
4,1,462,FiveGo,Go,0.46909244,2.664641976,2.546542663,0.648637429,0,4,2,-0.242530719,-0.242530719,0.443,0.411
4,1,307,FiveGo,Go,0.483526053,2.487138375,2.664641976,2.844287498,0,4,3,0.242530719,0.242530719,0.443,0.411
4,1,345,FiveGo,Go,0.497959667,2.537819095,2.487138375,-0.455780766,0,4,4,0.727592158,0.727592158,0.443,0.411
4,1,0,FiveGo,NoGo,0.51239328,0,2.537819095,0.486452711,0,4,5,1.212653597,1.212653597,0.443,0.411
4,1,235,ThreeGo,Go,0.526826894,2.371067862,NA,NA,0,4,0,-1.212653597,-1.212653597,0.443,0.411
4,1,264,ThreeGo,Go,0.541260508,2.421603927,2.371067862,-2.613712306,0,4,1,-0.727592158,-0.727592158,0.443,0.411
4,1,302,ThreeGo,Go,0.555694121,2.480006943,2.421603927,-1.67416819,0,4,2,-0.242530719,-0.242530719,0.443,0.411
4,1,0,ThreeGo,NoGo,0.570127735,0,2.480006943,-0.588365199,0,4,3,0.242530719,0.242530719,0.443,0.411
4,1,394,OneGo,Go,0.584561348,2.595496222,NA,NA,0,4,0,-1.212653597,-1.212653597,0.443,0.411
4,1,0,OneGo,NoGo,0.598994962,0,2.595496222,1.55876029,0,4,1,-0.727592158,-0.727592158,0.443,0.411
4,1,331,FiveGo,Go,0.613428575,2.519827994,NA,NA,0,4,0,-1.212653597,-1.212653597,0.443,0.411
4,1,385,FiveGo,Go,0.627862189,2.58546073,2.519827994,0.151970129,0,4,1,-0.727592158,-0.727592158,0.443,0.411
4,1,335,FiveGo,Go,0.642295802,2.525044807,2.58546073,1.372184864,0,4,2,-0.242530719,-0.242530719,0.443,0.411
4,1,309,FiveGo,Go,0.656729416,2.489958479,2.525044807,0.24895881,0,4,3,0.242530719,0.242530719,0.443,0.411
4,1,298,FiveGo,Go,0.671163029,2.474216264,2.489958479,-0.403350643,0,4,4,0.727592158,0.727592158,0.443,0.411
4,1,0,FiveGo,NoGo,0.685596643,0,2.474216264,-0.696022934,0,4,5,1.212653597,1.212653597,0.443,0.411
4,1,307,ThreeGo,Go,0.700030256,2.487138375,NA,NA,0,4,0,-1.212653597,-1.212653597,0.443,0.411
4,1,377,ThreeGo,Go,0.71446387,2.57634135,2.487138375,-0.455780766,0,4,1,-0.727592158,-0.727592158,0.443,0.411
4,1,318,ThreeGo,Go,0.728897483,2.50242712,2.57634135,1.202641406,0,4,2,-0.242530719,-0.242530719,0.443,0.411
4,1,0,ThreeGo,NoGo,0.743331097,0,2.50242712,-0.171539204,0,4,3,0.242530719,0.242530719,0.443,0.411
4,1,320,SevenGo,Go,0.757764711,2.505149978,NA,NA,0,4,0,-1.212653597,-1.212653597,0.443,0.411
4,1,326,SevenGo,Go,0.772198324,2.5132176,2.505149978,-0.120917029,0,4,1,-0.727592158,-0.727592158,0.443,0.411
4,1,299,SevenGo,Go,0.786631938,2.475671188,2.5132176,0.029072619,0,4,2,-0.242530719,-0.242530719,0.443,0.411
4,1,305,SevenGo,Go,0.801065551,2.484299839,2.475671188,-0.668973627,0,4,3,0.242530719,0.242530719,0.443,0.411
4,1,295,SevenGo,Go,0.815499165,2.469822016,2.484299839,-0.508553572,0,4,4,0.727592158,0.727592158,0.443,0.411
4,1,277,SevenGo,Go,0.829932778,2.442479769,2.469822016,-0.777718847,0,4,5,1.212653597,1.212653597,0.443,0.411
4,1,330,SevenGo,Go,0.844366392,2.51851394,2.442479769,-1.286053784,0,4,6,1.697715035,1.697715035,0.443,0.411
4,1,0,SevenGo,NoGo,0.858800005,0,2.51851394,0.127539822,0,4,7,2.182776474,2.182776474,0.443,0.411
4,1,283,SevenGo,Go,0.873233619,2.451786436,NA,NA,0,4,0,-1.212653597,-1.212653597,0.443,0.411
4,1,305,SevenGo,Go,0.887667232,2.484299839,2.451786436,-1.113028366,0,4,1,-0.727592158,-0.727592158,0.443,0.411
4,1,311,SevenGo,Go,0.902100846,2.492760389,2.484299839,-0.508553572,0,4,2,-0.242530719,-0.242530719,0.443,0.411
4,1,301,SevenGo,Go,0.916534459,2.478566496,2.492760389,-0.351258782,0,4,3,0.242530719,0.242530719,0.443,0.411
4,1,291,SevenGo,Go,0.930968073,2.463892989,2.478566496,-0.615145358,0,4,4,0.727592158,0.727592158,0.443,0.411
4,1,257,SevenGo,Go,0.945401687,2.409933123,2.463892989,-0.88794869,0,4,5,1.212653597,1.212653597,0.443,0.411
4,1,278,SevenGo,Go,0.9598353,2.444044796,2.409933123,-1.891146597,0,4,6,1.697715035,1.697715035,0.443,0.411
4,1,0,SevenGo,NoGo,0.974268914,0,2.444044796,-1.256957499,0,4,7,2.182776474,2.182776474,0.443,0.411
4,1,247,FiveGo,Go,0.988702527,2.392696953,NA,NA,0,4,0,-1.212653597,-1.212653597,0.443,0.411
4,1,325,FiveGo,Go,1.003136141,2.511883361,2.392696953,-2.211593832,0,4,1,-0.727592158,-0.727592158,0.443,0.411
4,1,282,FiveGo,Go,1.017569754,2.450249108,2.511883361,0.004267038,0,4,2,-0.242530719,-0.242530719,0.443,0.411
4,1,296,FiveGo,Go,1.032003368,2.471291711,2.450249108,-1.141609672,0,4,3,0.242530719,0.242530719,0.443,0.411
4,1,302,FiveGo,Go,1.046436981,2.480006943,2.471291711,-0.750394928,0,4,4,0.727592158,0.727592158,0.443,0.411
4,1,0,FiveGo,NoGo,1.060870595,0,2.480006943,-0.588365199,0,4,5,1.212653597,1.212653597,0.443,0.411
4,1,271,OneGo,Go,1.075304208,2.432969291,NA,NA,0,4,0,-1.212653597,-1.212653597,0.443,0.411
4,1,0,OneGo,NoGo,1.089737822,0,2.432969291,-1.46286838,0,4,1,-0.727592158,-0.727592158,0.443,0.411
4,1,296,ThreeGo,Go,1.104171435,2.471291711,NA,NA,0,4,0,-1.212653597,-1.212653597,0.443,0.411
4,1,294,ThreeGo,Go,1.118605049,2.46834733,2.471291711,-0.750394928,0,4,1,-0.727592158,-0.727592158,0.443,0.411
4,1,347,ThreeGo,Go,1.133038662,2.540329475,2.46834733,-0.805135548,0,4,2,-0.242530719,-0.242530719,0.443,0.411
4,1,0,ThreeGo,NoGo,1.147472276,0,2.540329475,0.533124578,0,4,3,0.242530719,0.242530719,0.443,0.411
4,1,293,FiveGo,Go,1.16190589,2.46686762,NA,NA,0,4,0,-1.212653597,-1.212653597,0.443,0.411
4,1,411,FiveGo,Go,1.176339503,2.613841822,2.46686762,-0.832645662,0,4,1,-0.727592158,-0.727592158,0.443,0.411
4,1,304,FiveGo,Go,1.190773117,2.482873584,2.613841822,1.899833555,0,4,2,-0.242530719,-0.242530719,0.443,0.411
4,1,286,FiveGo,Go,1.20520673,2.456366033,2.482873584,-0.535069886,0,4,3,0.242530719,0.242530719,0.443,0.411
4,1,348,FiveGo,Go,1.219640344,2.541579244,2.456366033,-1.027886517,0,4,4,0.727592158,0.727592158,0.443,0.411
4,1,0,FiveGo,NoGo,1.234073957,0,2.541579244,0.556359733,0,4,5,1.212653597,1.212653597,0.443,0.411
4,1,276,OneGo,Go,1.248507571,2.440909082,NA,NA,0,4,0,-1.212653597,-1.212653597,0.443,0.411
4,1,0,OneGo,NoGo,1.262941184,0,2.440909082,-1.315255301,0,4,1,-0.727592158,-0.727592158,0.443,0.411
4,1,294,ThreeGo,Go,1.277374798,2.46834733,NA,NA,0,4,0,-1.212653597,-1.212653597,0.443,0.411
4,1,308,ThreeGo,Go,1.291808411,2.488550717,2.46834733,-0.805135548,0,4,1,-0.727592158,-0.727592158,0.443,0.411
4,1,297,ThreeGo,Go,1.306242025,2.472756449,2.488550717,-0.429523148,0,4,2,-0.242530719,-0.242530719,0.443,0.411
