"subj_idx","response","rt","cond","stim","stim_cond","trial_z","rt_log_trim_grp","prev_rt","block_trial"
1,1,486,"ThreeGo","Go","Go_ThreeGo",-1.71038320383982,2.68663626926229,0.42,2
1,1,380,"ThreeGo","Go","Go_ThreeGo",-1.69594959030531,2.57978359661681,0,3
1,1,0,"ThreeGo","NoGo","NoGo_ThreeGo",-1.6815159767708,0,0.37,4
1,1,533,"FiveGo","Go","Go_FiveGo",-1.66708236323628,2.72672720902657,0.438,1
1,1,467,"FiveGo","Go","Go_FiveGo",-1.65264874970177,2.66931688056611,0.393,2
1,1,497,"FiveGo","Go","Go_FiveGo",-1.63821513616726,2.69635638873333,0.428,3
1,1,422,"FiveGo","Go","Go_FiveGo",-1.62378152263274,2.62531245096167,0.44,4
1,1,468,"FiveGo","Go","Go_FiveGo",-1.60934790909823,2.67024585307412,0.388,5
1,1,0,"FiveGo","NoGo","NoGo_FiveGo",-1.59491429556372,0,0.415,6
1,1,389,"OneGo","Go","Go_OneGo",-1.5804806820292,2.58994960132571,0,1
1,1,0,"OneGo","NoGo","NoGo_OneGo",-1.56604706849469,0,0.421,2
1,1,510,"SevenGo","Go","Go_SevenGo",-1.55161345496018,2.70757017609794,0.393,1
1,1,484,"SevenGo","Go","Go_SevenGo",-1.53717984142566,2.68484536164441,0.461,2
1,1,426,"SevenGo","Go","Go_SevenGo",-1.52274622789115,2.62940959910272,0.432,3
1,1,431,"SevenGo","Go","Go_SevenGo",-1.50831261435664,2.63447727016073,0.411,4
1,1,445,"SevenGo","Go","Go_SevenGo",-1.49387900082212,2.64836001098093,0,5
1,1,507,"SevenGo","Go","Go_SevenGo",-1.47944538728761,2.70500795933334,0.442,6
1,1,457,"SevenGo","Go","Go_SevenGo",-1.4650117737531,2.65991620006985,0.39,7
1,1,0,"SevenGo","NoGo","NoGo_SevenGo",-1.45057816021858,0,0.433,8
1,1,569,"SevenGo","Go","Go_SevenGo",-1.43614454668407,2.75511226639507,0,9
1,1,351,"SevenGo","Go","Go_SevenGo",-1.42171093314956,2.54530711646582,0.4,10
1,1,333,"SevenGo","Go","Go_SevenGo",-1.40727731961504,2.52244423350632,0.412,11
1,1,434,"SevenGo","Go","Go_SevenGo",-1.39284370608053,2.63748972951251,0.423,12
1,1,480,"SevenGo","Go","Go_SevenGo",-1.37841009254602,2.68124123737559,0.418,13
1,1,374,"SevenGo","Go","Go_SevenGo",-1.3639764790115,2.57287160220048,0.43,14
1,1,420,"SevenGo","Go","Go_SevenGo",-1.34954286547699,2.6232492903979,0,15
1,0,322,"SevenGo","NoGo","NoGo_SevenGo",-1.33510925194248,2.50785587169583,0.397,16
1,1,549,"OneGo","Go","Go_OneGo",-1.32067563840796,2.73957234445009,0,3
1,1,0,"OneGo","NoGo","NoGo_OneGo",-1.30624202487345,0,0.387,4
1,1,510,"ThreeGo","Go","Go_ThreeGo",-1.29180841133894,2.70757017609794,0.407,5
1,1,435,"ThreeGo","Go","Go_ThreeGo",-1.27737479780442,2.63848925695464,0.427,6
1,1,465,"ThreeGo","Go","Go_ThreeGo",-1.26294118426991,2.66745295288995,0.405,7
1,1,0,"ThreeGo","NoGo","NoGo_ThreeGo",-1.2485075707354,0,0.465,8
1,1,523,"FiveGo","Go","Go_FiveGo",-1.23407395720088,2.71850168886727,0.493,7
1,1,344,"FiveGo","Go","Go_FiveGo",-1.21964034366637,2.53655844257153,0.408,8
1,1,334,"FiveGo","Go","Go_FiveGo",-1.20520673013186,2.52374646681156,0,9
1,1,372,"FiveGo","Go","Go_FiveGo",-1.19077311659734,2.5705429398819,0.399,10
1,1,362,"FiveGo","Go","Go_FiveGo",-1.17633950306283,2.55870857053317,0.41,11
1,1,0,"FiveGo","NoGo","NoGo_FiveGo",-1.16190588952832,0,0.43,12
1,1,418,"OneGo","Go","Go_OneGo",-1.1474722759938,2.62117628177504,0,5
1,1,0,"OneGo","NoGo","NoGo_OneGo",-1.13303866245929,0,0.356,6
1,1,404,"ThreeGo","Go","Go_ThreeGo",-1.11860504892478,2.60638136511061,0.4,9
1,1,346,"ThreeGo","Go","Go_ThreeGo",-1.10417143539027,2.53907609879278,0.42,10
1,1,415,"ThreeGo","Go","Go_ThreeGo",-1.08973782185575,2.61804809671209,0.439,11
1,1,0,"ThreeGo","NoGo","NoGo_ThreeGo",-1.07530420832124,0,0.442,12
1,1,336,"SevenGo","Go","Go_SevenGo",-1.06087059478673,2.52633927738984,0,17
1,1,278,"SevenGo","Go","Go_SevenGo",-1.04643698125221,2.44404479591808,0.425,18
1,1,411,"SevenGo","Go","Go_SevenGo",-1.0320033677177,2.61384182187607,0.429,19
1,1,433,"SevenGo","Go","Go_SevenGo",-1.01756975418319,2.63648789635337,0.385,20
1,1,359,"SevenGo","Go","Go_SevenGo",-1.00313614064867,2.55509444857832,0,21
1,1,357,"SevenGo","Go","Go_SevenGo",-0.988702527114159,2.55266821611219,0.431,22
1,1,354,"SevenGo","Go","Go_SevenGo",-0.974268913579646,2.54900326202579,0,23
1,1,0,"SevenGo","NoGo","NoGo_SevenGo",-0.959835300045133,0,0.478,24
1,1,436,"FiveGo","Go","Go_FiveGo",-0.945401686510619,2.63948648926859,0.457,13
1,1,401,"FiveGo","Go","Go_FiveGo",-0.930968072976106,2.60314437262018,0.413,14
1,1,477,"FiveGo","Go","Go_FiveGo",-0.902100845907079,2.67851837904011,0.412,16
1,1,379,"FiveGo","Go","Go_FiveGo",-0.887667232372566,2.57863920996807,0.455,17
1,1,0,"FiveGo","NoGo","NoGo_FiveGo",-0.873233618838053,0,0.426,18
1,1,331,"FiveGo","Go","Go_FiveGo",-0.85880000530354,2.51982799377572,0,19
1,1,273,"FiveGo","Go","Go_FiveGo",-0.844366391769026,2.43616264704076,0.378,20
1,1,312,"FiveGo","Go","Go_FiveGo",-0.829932778234513,2.49415459401844,0.397,21
1,1,262,"FiveGo","Go","Go_FiveGo",-0.8154991647,2.41830129131975,0.464,22
1,1,331,"FiveGo","Go","Go_FiveGo",-0.801065551165487,2.51982799377572,0.404,23
1,1,0,"FiveGo","NoGo","NoGo_FiveGo",-0.786631937630973,0,0.399,24
1,1,540,"OneGo","Go","Go_OneGo",-0.77219832409646,2.73239375982297,0,7
1,1,0,"OneGo","NoGo","NoGo_OneGo",-0.757764710561947,0,0.358,8
1,1,460,"SevenGo","Go","Go_SevenGo",-0.743331097027433,2.66275783168157,0.37,25
1,1,410,"SevenGo","Go","Go_SevenGo",-0.72889748349292,2.61278385671974,0.421,26
1,1,441,"SevenGo","Go","Go_SevenGo",-0.714463869958407,2.64443858946784,0,27
1,1,431,"SevenGo","Go","Go_SevenGo",-0.700030256423894,2.63447727016073,0.38,28
1,1,492,"SevenGo","Go","Go_SevenGo",-0.68559664288938,2.69196510276736,0,29
1,1,466,"SevenGo","Go","Go_SevenGo",-0.671163029354867,2.66838591669,0.395,30
1,1,400,"SevenGo","Go","Go_SevenGo",-0.656729415820354,2.60205999132796,0.398,31
1,0,294,"SevenGo","NoGo","NoGo_SevenGo",-0.64229580228584,2.46834733041216,0.433,32
1,1,568,"ThreeGo","Go","Go_ThreeGo",-0.627862188751327,2.75434833571102,0.373,13
1,1,508,"ThreeGo","Go","Go_ThreeGo",-0.598994961682301,2.70586371228392,0.444,15
1,1,0,"ThreeGo","NoGo","NoGo_ThreeGo",-0.584561348147787,0,0.424,16
1,1,462,"ThreeGo","Go","Go_ThreeGo",-0.555694121078761,2.66464197555613,0.566,18
1,1,532,"ThreeGo","Go","Go_ThreeGo",-0.541260507544248,2.72591163229505,0.362,19
1,1,0,"ThreeGo","NoGo","NoGo_ThreeGo",-0.526826894009734,0,0.381,20
1,1,500,"OneGo","Go","Go_OneGo",-0.512393280475221,2.69897000433602,0.384,9
1,1,0,"OneGo","NoGo","NoGo_OneGo",-0.497959666940708,0,0.372,10
1,1,502,"FiveGo","Go","Go_FiveGo",-0.483526053406195,2.70070371714502,0,25
1,1,378,"FiveGo","Go","Go_FiveGo",-0.454658826337168,2.57749179983723,0.326,27
1,1,375,"FiveGo","Go","Go_FiveGo",-0.440225212802655,2.57403126772772,0.378,28
1,1,429,"FiveGo","Go","Go_FiveGo",-0.425791599268141,2.63245729218472,0,29
1,1,0,"FiveGo","NoGo","NoGo_FiveGo",-0.411357985733628,0,0.377,30
1,1,254,"SevenGo","Go","Go_SevenGo",-0.396924372199115,2.40483371661994,0,33
1,1,379,"SevenGo","Go","Go_SevenGo",-0.382490758664602,2.57863920996807,0.303,34
1,1,409,"SevenGo","Go","Go_SevenGo",-0.368057145130088,2.61172330800734,0.355,35
1,1,343,"SevenGo","Go","Go_SevenGo",-0.353623531595575,2.53529412004277,0.399,36
1,1,421,"SevenGo","Go","Go_SevenGo",-0.339189918061062,2.62428209583567,0.369,37
1,1,483,"SevenGo","Go","Go_SevenGo",-0.324756304526549,2.68394713075151,0.429,38
1,1,339,"SevenGo","Go","Go_SevenGo",-0.310322690992035,2.53019969820308,0.393,39
1,1,0,"SevenGo","NoGo","NoGo_SevenGo",-0.295889077457522,0,0.38,40
1,1,474,"OneGo","Go","Go_OneGo",-0.281455463923009,2.67577834167409,0,11
1,1,0,"OneGo","NoGo","NoGo_OneGo",-0.267021850388496,0,0.387,12
1,1,458,"SevenGo","Go","Go_SevenGo",-0.252588236853982,2.66086547800387,0.398,41
1,1,438,"SevenGo","Go","Go_SevenGo",-0.223721009784956,2.6414741105041,0,43
1,1,499,"SevenGo","Go","Go_SevenGo",-0.209287396250442,2.69810054562339,0.352,44
1,1,338,"SevenGo","Go","Go_SevenGo",-0.194853782715929,2.52891670027765,0.356,45
1,1,416,"SevenGo","Go","Go_SevenGo",-0.180420169181416,2.61909333062674,0.344,46
1,1,398,"SevenGo","Go","Go_SevenGo",-0.165986555646903,2.59988307207369,0.411,47
1,1,0,"SevenGo","NoGo","NoGo_SevenGo",-0.151552942112389,0,0.39,48
1,1,342,"FiveGo","Go","Go_FiveGo",-0.137119328577876,2.53402610605613,0.386,31
1,1,292,"FiveGo","Go","Go_FiveGo",-0.122685715043363,2.46538285144842,0.373,32
1,1,330,"FiveGo","Go","Go_FiveGo",-0.10825210150885,2.51851393987789,0,33
1,1,279,"FiveGo","Go","Go_FiveGo",-0.0938184879743363,2.4456042032736,0.412,34
1,1,293,"FiveGo","Go","Go_FiveGo",-0.079384874439823,2.46686762035411,0.367,35
1,0,339,"FiveGo","NoGo","NoGo_FiveGo",-0.0649512609053097,2.53019969820308,0.419,36
1,1,375,"ThreeGo","Go","Go_ThreeGo",-0.0505176473707964,2.57403126772772,0.423,21
1,1,348,"ThreeGo","Go","Go_ThreeGo",-0.0360840338362832,2.54157924394658,0.41,22
1,1,490,"ThreeGo","Go","Go_ThreeGo",-0.0216504203017699,2.69019608002851,0,23
1,1,0,"ThreeGo","NoGo","NoGo_ThreeGo",-0.00721680676725664,0,0.385,24
1,1,259,"OneGo","Go","Go_OneGo",0.00721680676725664,2.41329976408125,0,13
1,0,256,"OneGo","NoGo","NoGo_OneGo",0.0216504203017699,2.40823996531185,0.408,14
1,1,379,"ThreeGo","Go","Go_ThreeGo",0.0360840338362832,2.57863920996807,0,25
1,1,505,"ThreeGo","Go","Go_ThreeGo",0.0505176473707964,2.70329137811866,0.438,26
1,1,416,"ThreeGo","Go","Go_ThreeGo",0.0649512609053097,2.61909333062674,0.394,27
1,1,0,"ThreeGo","NoGo","NoGo_ThreeGo",0.079384874439823,0,0.438,28
1,1,496,"SevenGo","Go","Go_SevenGo",0.0938184879743363,2.6954816764902,0,49
1,1,334,"SevenGo","Go","Go_SevenGo",0.10825210150885,2.52374646681156,0.388,50
1,1,316,"SevenGo","Go","Go_SevenGo",0.122685715043363,2.4996870826184,0.376,51
1,1,337,"SevenGo","Go","Go_SevenGo",0.137119328577876,2.52762990087134,0.403,52
1,1,359,"SevenGo","Go","Go_SevenGo",0.151552942112389,2.55509444857832,0.439,53
1,1,317,"SevenGo","Go","Go_SevenGo",0.165986555646903,2.50105926221775,0.418,54
1,1,347,"SevenGo","Go","Go_SevenGo",0.180420169181416,2.54032947479087,0.373,55
1,1,0,"SevenGo","NoGo","NoGo_SevenGo",0.194853782715929,0,0.393,56
1,1,284,"FiveGo","Go","Go_FiveGo",0.209287396250442,2.45331834004704,0,37
1,1,346,"FiveGo","Go","Go_FiveGo",0.223721009784956,2.53907609879278,0.326,38
1,0,0,"FiveGo","Go","Go_FiveGo",0.238154623319469,0,0.427,39
1,1,397,"FiveGo","Go","Go_FiveGo",0.252588236853982,2.59879050676312,0.382,40
1,1,395,"FiveGo","Go","Go_FiveGo",0.267021850388496,2.59659709562646,0.354,41
1,1,0,"FiveGo","NoGo","NoGo_FiveGo",0.281455463923009,0,0.373,42
1,1,420,"OneGo","Go","Go_OneGo",0.295889077457522,2.6232492903979,0,15
1,0,393,"OneGo","NoGo","NoGo_OneGo",0.310322690992035,2.59439255037543,0.38,16
1,1,485,"FiveGo","Go","Go_FiveGo",0.324756304526549,2.68574173860226,0.384,43
1,1,443,"FiveGo","Go","Go_FiveGo",0.339189918061062,2.64640372622307,0.38,44
1,1,417,"FiveGo","Go","Go_FiveGo",0.353623531595575,2.62013605497376,0.366,45
1,1,358,"FiveGo","Go","Go_FiveGo",0.368057145130088,2.55388302664387,0.442,46
1,1,348,"FiveGo","Go","Go_FiveGo",0.382490758664602,2.54157924394658,0,47
1,1,0,"FiveGo","NoGo","NoGo_FiveGo",0.396924372199115,0,0.313,48
1,1,293,"SevenGo","Go","Go_SevenGo",0.411357985733628,2.46686762035411,0.476,57
1,1,386,"SevenGo","Go","Go_SevenGo",0.425791599268141,2.58658730467176,0.439,58
1,1,368,"SevenGo","Go","Go_SevenGo",0.440225212802655,2.56584781867352,0,59
1,1,374,"SevenGo","Go","Go_SevenGo",0.454658826337168,2.57287160220048,0.391,60
1,1,284,"SevenGo","Go","Go_SevenGo",0.469092439871681,2.45331834004704,0,61
1,1,377,"SevenGo","Go","Go_SevenGo",0.483526053406195,2.57634135020579,0.421,62
1,1,423,"SevenGo","Go","Go_SevenGo",0.497959666940708,2.62634036737504,0.377,63
1,1,0,"SevenGo","NoGo","NoGo_SevenGo",0.512393280475221,0,0.396,64
1,1,345,"ThreeGo","Go","Go_ThreeGo",0.526826894009734,2.53781909507327,0.464,29
1,1,318,"ThreeGo","Go","Go_ThreeGo",0.541260507544248,2.50242711998443,0.395,30
1,1,372,"ThreeGo","Go","Go_ThreeGo",0.555694121078761,2.5705429398819,0.374,31
1,1,0,"ThreeGo","NoGo","NoGo_ThreeGo",0.570127734613274,0,0.41,32
1,1,473,"ThreeGo","Go","Go_ThreeGo",0.584561348147787,2.67486114073781,0,33
1,1,366,"ThreeGo","Go","Go_ThreeGo",0.598994961682301,2.56348108539441,0.395,34
1,1,380,"ThreeGo","Go","Go_ThreeGo",0.613428575216814,2.57978359661681,0.399,35
1,0,298,"ThreeGo","NoGo","NoGo_ThreeGo",0.627862188751327,2.47421626407626,0.394,36
1,1,317,"OneGo","Go","Go_OneGo",0.64229580228584,2.50105926221775,0.397,17
1,1,0,"OneGo","NoGo","NoGo_OneGo",0.656729415820354,0,0.417,18
1,1,318,"SevenGo","Go","Go_SevenGo",0.671163029354867,2.50242711998443,0.396,65
1,1,540,"SevenGo","Go","Go_SevenGo",0.68559664288938,2.73239375982297,0.392,66
1,1,474,"SevenGo","Go","Go_SevenGo",0.700030256423894,2.67577834167409,0,67
1,1,359,"SevenGo","Go","Go_SevenGo",0.714463869958407,2.55509444857832,0.43,68
1,1,397,"SevenGo","Go","Go_SevenGo",0.72889748349292,2.59879050676312,0.354,69
1,1,555,"SevenGo","Go","Go_SevenGo",0.743331097027433,2.74429298312268,0.406,70
1,1,441,"SevenGo","Go","Go_SevenGo",0.757764710561947,2.64443858946784,0,71
1,1,0,"SevenGo","NoGo","NoGo_SevenGo",0.77219832409646,0,0.388,72
1,1,466,"FiveGo","Go","Go_FiveGo",0.786631937630973,2.66838591669,0,49
1,1,472,"FiveGo","Go","Go_FiveGo",0.801065551165487,2.67394199863409,0.395,50
1,1,470,"FiveGo","Go","Go_FiveGo",0.8154991647,2.67209785793572,0.415,51
1,1,332,"FiveGo","Go","Go_FiveGo",0.829932778234513,2.52113808370404,0.457,52
1,1,393,"FiveGo","Go","Go_FiveGo",0.844366391769026,2.59439255037543,0.381,53
1,1,0,"FiveGo","NoGo","NoGo_FiveGo",0.85880000530354,0,0.401,54
1,1,538,"SevenGo","Go","Go_SevenGo",0.873233618838053,2.73078227566639,0,73
1,1,327,"SevenGo","Go","Go_SevenGo",0.887667232372566,2.51454775266029,0.352,74
1,1,333,"SevenGo","Go","Go_SevenGo",0.902100845907079,2.52244423350632,0.363,75
1,1,387,"SevenGo","Go","Go_SevenGo",0.916534459441593,2.58771096501891,0.423,76
1,1,345,"SevenGo","Go","Go_SevenGo",0.930968072976106,2.53781909507327,0.41,77
1,1,375,"SevenGo","Go","Go_SevenGo",0.945401686510619,2.57403126772772,0.39,78
1,1,428,"SevenGo","Go","Go_SevenGo",0.959835300045133,2.63144376901317,0,79
1,1,0,"SevenGo","NoGo","NoGo_SevenGo",0.974268913579646,0,0.372,80
1,1,302,"OneGo","Go","Go_OneGo",0.988702527114159,2.48000694295715,0.376,19
1,0,292,"OneGo","NoGo","NoGo_OneGo",1.00313614064867,2.46538285144842,0.412,20
1,1,510,"ThreeGo","Go","Go_ThreeGo",1.01756975418319,2.70757017609794,0.366,37
1,1,316,"ThreeGo","Go","Go_ThreeGo",1.0320033677177,2.4996870826184,0.41,38
1,1,514,"ThreeGo","Go","Go_ThreeGo",1.04643698125221,2.71096311899528,0.413,39
1,1,0,"ThreeGo","NoGo","NoGo_ThreeGo",1.06087059478673,0,0.433,40
1,1,251,"FiveGo","Go","Go_FiveGo",1.07530420832124,2.39967372148104,0,55
1,1,321,"FiveGo","Go","Go_FiveGo",1.08973782185575,2.50650503240487,0.408,56
1,1,335,"FiveGo","Go","Go_FiveGo",1.10417143539027,2.52504480703685,0.403,57
1,1,429,"FiveGo","Go","Go_FiveGo",1.11860504892478,2.63245729218472,0.415,58
1,1,394,"FiveGo","Go","Go_FiveGo",1.13303866245929,2.59549622182557,0,59
1,0,560,"FiveGo","NoGo","NoGo_FiveGo",1.1474722759938,2.7481880270062,0.453,60
1,1,371,"SevenGo","Go","Go_SevenGo",1.16190588952832,2.56937390961505,0,81
1,1,376,"SevenGo","Go","Go_SevenGo",1.17633950306283,2.57518784492766,0.396,82
1,1,518,"SevenGo","Go","Go_SevenGo",1.19077311659734,2.71432975974523,0,83
1,1,412,"SevenGo","Go","Go_SevenGo",1.20520673013186,2.61489721603313,0.363,84
1,1,450,"SevenGo","Go","Go_SevenGo",1.21964034366637,2.65321251377534,0.335,85
1,1,416,"SevenGo","Go","Go_SevenGo",1.23407395720088,2.61909333062674,0.394,86
1,1,0,"SevenGo","NoGo","NoGo_SevenGo",1.26294118426991,0,0.385,88
1,1,423,"OneGo","Go","Go_OneGo",1.27737479780442,2.62634036737504,0,21
1,1,0,"OneGo","NoGo","NoGo_OneGo",1.29180841133894,0,0.424,22
1,1,335,"FiveGo","Go","Go_FiveGo",1.30624202487345,2.52504480703685,0.404,61
1,1,301,"FiveGo","Go","Go_FiveGo",1.32067563840796,2.47856649559384,0.471,62
1,1,291,"FiveGo","Go","Go_FiveGo",1.33510925194248,2.46389298898591,0,63
1,1,369,"FiveGo","Go","Go_FiveGo",1.34954286547699,2.56702636615906,0.422,64
1,1,334,"FiveGo","Go","Go_FiveGo",1.3639764790115,2.52374646681156,0.393,65
1,0,292,"FiveGo","NoGo","NoGo_FiveGo",1.37841009254602,2.46538285144842,0.413,66
1,1,496,"ThreeGo","Go","Go_ThreeGo",1.39284370608053,2.6954816764902,0.423,41
1,1,454,"ThreeGo","Go","Go_ThreeGo",1.40727731961504,2.6570558528571,0.403,42
1,1,459,"ThreeGo","Go","Go_ThreeGo",1.42171093314956,2.66181268553726,0.415,43
1,1,0,"ThreeGo","NoGo","NoGo_ThreeGo",1.43614454668407,0,0.394,44
1,1,532,"ThreeGo","Go","Go_ThreeGo",1.45057816021858,2.72591163229505,0,45
1,1,402,"ThreeGo","Go","Go_ThreeGo",1.4650117737531,2.60422605308447,0.377,46
1,1,343,"ThreeGo","Go","Go_ThreeGo",1.47944538728761,2.53529412004277,0.42,47
1,0,309,"ThreeGo","NoGo","NoGo_ThreeGo",1.49387900082212,2.48995847942483,0.392,48
1,1,417,"OneGo","Go","Go_OneGo",1.50831261435664,2.62013605497376,0.372,23
1,1,0,"OneGo","NoGo","NoGo_OneGo",1.52274622789115,0,0.406,24
1,1,465,"FiveGo","Go","Go_FiveGo",1.53717984142566,2.66745295288995,0,67
1,1,351,"FiveGo","Go","Go_FiveGo",1.55161345496018,2.54530711646582,0.382,68
1,1,301,"FiveGo","Go","Go_FiveGo",1.56604706849469,2.47856649559384,0.313,69
1,1,411,"FiveGo","Go","Go_FiveGo",1.5804806820292,2.61384182187607,0.379,70
1,1,464,"FiveGo","Go","Go_FiveGo",1.59491429556372,2.66651798055488,0.424,71
1,1,0,"FiveGo","NoGo","NoGo_FiveGo",1.60934790909823,0,0.411,72
1,1,426,"SevenGo","Go","Go_SevenGo",1.62378152263274,2.62940959910272,0.367,89
1,1,440,"SevenGo","Go","Go_SevenGo",1.63821513616726,2.64345267648619,0.363,90
1,1,485,"SevenGo","Go","Go_SevenGo",1.65264874970177,2.68574173860226,0,91
1,1,419,"SevenGo","Go","Go_SevenGo",1.66708236323628,2.6222140229663,0.385,92
1,1,465,"SevenGo","Go","Go_SevenGo",1.6815159767708,2.66745295288995,0.365,93
1,1,526,"SevenGo","Go","Go_SevenGo",1.69594959030531,2.72098574415374,0.392,94
1,1,500,"SevenGo","Go","Go_SevenGo",1.71038320383982,2.69897000433602,0,95
1,1,0,"SevenGo","NoGo","NoGo_SevenGo",1.72481681737434,0,0.367,96
2,1,361,"SevenGo","Go","Go_SevenGo",-1.72481681737434,2.55750720190566,0.64,1
2,1,334,"SevenGo","Go","Go_SevenGo",-1.71038320383982,2.52374646681156,0.486,2
2,1,284,"SevenGo","Go","Go_SevenGo",-1.69594959030531,2.45331834004704,0.38,3
2,1,370,"SevenGo","Go","Go_SevenGo",-1.6815159767708,2.56820172406699,0,4
2,1,320,"SevenGo","Go","Go_SevenGo",-1.66708236323628,2.50514997831991,0.533,5
2,1,277,"SevenGo","Go","Go_SevenGo",-1.65264874970177,2.44247976906445,0.467,6
2,1,259,"SevenGo","Go","Go_SevenGo",-1.63821513616726,2.41329976408125,0.497,7
2,1,0,"SevenGo","NoGo","NoGo_SevenGo",-1.62378152263274,0,0.422,8
2,1,324,"ThreeGo","Go","Go_ThreeGo",-1.60934790909823,2.51054501020661,0.468,1
2,1,281,"ThreeGo","Go","Go_ThreeGo",-1.59491429556372,2.44870631990508,0,2
2,1,287,"ThreeGo","Go","Go_ThreeGo",-1.5804806820292,2.45788189673399,0.389,3
2,0,269,"ThreeGo","NoGo","NoGo_ThreeGo",-1.56604706849469,2.42975228000241,0,4
2,1,441,"FiveGo","Go","Go_FiveGo",-1.55161345496018,2.64443858946784,0.51,1
2,1,334,"FiveGo","Go","Go_FiveGo",-1.53717984142566,2.52374646681156,0.484,2
2,1,332,"FiveGo","Go","Go_FiveGo",-1.52274622789115,2.52113808370404,0.426,3
2,1,322,"FiveGo","Go","Go_FiveGo",-1.50831261435664,2.50785587169583,0.431,4
2,1,368,"FiveGo","Go","Go_FiveGo",-1.49387900082212,2.56584781867352,0.445,5
2,1,0,"FiveGo","NoGo","NoGo_FiveGo",-1.47944538728761,0,0.507,6
2,1,312,"OneGo","Go","Go_OneGo",-1.4650117737531,2.49415459401844,0.457,1
2,0,278,"OneGo","NoGo","NoGo_OneGo",-1.45057816021858,2.44404479591808,0,2
2,1,330,"FiveGo","Go","Go_FiveGo",-1.43614454668407,2.51851393987789,0.569,7
2,1,367,"FiveGo","Go","Go_FiveGo",-1.42171093314956,2.56466606425209,0.351,8
2,1,341,"FiveGo","Go","Go_FiveGo",-1.40727731961504,2.5327543789925,0.333,9
2,1,331,"FiveGo","Go","Go_FiveGo",-1.39284370608053,2.51982799377572,0.434,10
2,1,313,"FiveGo","Go","Go_FiveGo",-1.37841009254602,2.49554433754645,0.48,11
2,1,0,"FiveGo","NoGo","NoGo_FiveGo",-1.3639764790115,0,0.374,12
2,1,329,"ThreeGo","Go","Go_ThreeGo",-1.34954286547699,2.51719589794997,0.42,5
2,1,351,"ThreeGo","Go","Go_ThreeGo",-1.33510925194248,2.54530711646582,0.322,6
2,1,365,"ThreeGo","Go","Go_ThreeGo",-1.32067563840796,2.56229286445647,0.549,7
2,1,0,"ThreeGo","NoGo","NoGo_ThreeGo",-1.30624202487345,0,0,8
2,1,318,"SevenGo","Go","Go_SevenGo",-1.29180841133894,2.50242711998443,0.51,9
2,1,348,"SevenGo","Go","Go_SevenGo",-1.27737479780442,2.54157924394658,0.435,10
2,1,362,"SevenGo","Go","Go_SevenGo",-1.26294118426991,2.55870857053317,0.465,11
2,1,319,"SevenGo","Go","Go_SevenGo",-1.2485075707354,2.50379068305718,0,12
2,1,325,"SevenGo","Go","Go_SevenGo",-1.23407395720088,2.51188336097887,0.523,13
2,1,371,"SevenGo","Go","Go_SevenGo",-1.21964034366637,2.56937390961505,0.344,14
2,1,313,"SevenGo","Go","Go_SevenGo",-1.20520673013186,2.49554433754645,0.334,15
2,1,0,"SevenGo","NoGo","NoGo_SevenGo",-1.19077311659734,0,0.372,16
2,1,265,"OneGo","Go","Go_OneGo",-1.17633950306283,2.42324587393681,0.362,3
2,1,0,"OneGo","NoGo","NoGo_OneGo",-1.16190588952832,0,0,4
2,1,331,"SevenGo","Go","Go_SevenGo",-1.1474722759938,2.51982799377572,0.418,17
2,1,336,"SevenGo","Go","Go_SevenGo",-1.13303866245929,2.52633927738984,0,18
2,1,334,"SevenGo","Go","Go_SevenGo",-1.11860504892478,2.52374646681156,0.404,19
2,1,372,"SevenGo","Go","Go_SevenGo",-1.10417143539027,2.5705429398819,0.346,20
2,1,346,"SevenGo","Go","Go_SevenGo",-1.08973782185575,2.53907609879278,0.415,21
2,1,335,"SevenGo","Go","Go_SevenGo",-1.07530420832124,2.52504480703685,0,22
2,1,333,"SevenGo","Go","Go_SevenGo",-1.06087059478673,2.52244423350632,0.336,23
2,0,299,"SevenGo","NoGo","NoGo_SevenGo",-1.04643698125221,2.47567118832443,0.278,24
2,1,374,"OneGo","Go","Go_OneGo",-1.0320033677177,2.57287160220048,0.411,5
2,1,0,"OneGo","NoGo","NoGo_OneGo",-1.01756975418319,0,0.433,6
2,1,351,"ThreeGo","Go","Go_ThreeGo",-1.00313614064867,2.54530711646582,0.359,9
2,1,421,"ThreeGo","Go","Go_ThreeGo",-0.988702527114159,2.62428209583567,0.357,10
2,1,531,"ThreeGo","Go","Go_ThreeGo",-0.974268913579646,2.72509452108147,0.354,11
2,1,0,"ThreeGo","NoGo","NoGo_ThreeGo",-0.959835300045133,0,0,12
2,1,259,"FiveGo","Go","Go_FiveGo",-0.945401686510619,2.41329976408125,0.436,13
2,1,401,"FiveGo","Go","Go_FiveGo",-0.930968072976106,2.60314437262018,0.401,14
2,1,415,"FiveGo","Go","Go_FiveGo",-0.916534459441593,2.61804809671209,0.615,15
2,1,324,"FiveGo","Go","Go_FiveGo",-0.902100845907079,2.51054501020661,0.477,16
2,1,322,"FiveGo","Go","Go_FiveGo",-0.887667232372566,2.50785587169583,0.379,17
2,1,0,"FiveGo","NoGo","NoGo_FiveGo",-0.873233618838053,0,0,18
2,1,340,"SevenGo","Go","Go_SevenGo",-0.85880000530354,2.53147891704225,0.331,25
2,1,345,"SevenGo","Go","Go_SevenGo",-0.844366391769026,2.53781909507327,0.273,26
2,1,311,"SevenGo","Go","Go_SevenGo",-0.829932778234513,2.49276038902684,0.312,27
2,1,349,"SevenGo","Go","Go_SevenGo",-0.8154991647,2.54282542695918,0.262,28
2,1,307,"SevenGo","Go","Go_SevenGo",-0.801065551165487,2.48713837547719,0.331,29
2,1,368,"SevenGo","Go","Go_SevenGo",-0.786631937630973,2.56584781867352,0,30
2,1,326,"SevenGo","Go","Go_SevenGo",-0.77219832409646,2.51321760006794,0.54,31
2,1,0,"SevenGo","NoGo","NoGo_SevenGo",-0.757764710561947,0,0,32
2,1,327,"FiveGo","Go","Go_FiveGo",-0.743331097027433,2.51454775266029,0.46,19
2,1,341,"FiveGo","Go","Go_FiveGo",-0.72889748349292,2.5327543789925,0.41,20
2,1,347,"FiveGo","Go","Go_FiveGo",-0.714463869958407,2.54032947479087,0.441,21
2,1,385,"FiveGo","Go","Go_FiveGo",-0.700030256423894,2.5854607295085,0.431,22
2,1,375,"FiveGo","Go","Go_FiveGo",-0.68559664288938,2.57403126772772,0.492,23
2,1,0,"FiveGo","NoGo","NoGo_FiveGo",-0.671163029354867,0,0.466,24
2,1,319,"OneGo","Go","Go_OneGo",-0.656729415820354,2.50379068305718,0.4,7
2,1,0,"OneGo","NoGo","NoGo_OneGo",-0.64229580228584,0,0.294,8
2,1,288,"ThreeGo","Go","Go_ThreeGo",-0.627862188751327,2.45939248775923,0.568,13
2,1,333,"ThreeGo","Go","Go_ThreeGo",-0.613428575216814,2.52244423350632,0.67,14
2,1,340,"ThreeGo","Go","Go_ThreeGo",-0.598994961682301,2.53147891704225,0.508,15
2,1,0,"ThreeGo","NoGo","NoGo_ThreeGo",-0.584561348147787,0,0,16
2,1,562,"ThreeGo","Go","Go_ThreeGo",-0.570127734613274,2.74973631556906,0.656,17
2,1,336,"ThreeGo","Go","Go_ThreeGo",-0.555694121078761,2.52633927738984,0.462,18
2,1,334,"ThreeGo","Go","Go_ThreeGo",-0.541260507544248,2.52374646681156,0.532,19
2,1,0,"ThreeGo","NoGo","NoGo_ThreeGo",-0.526826894009734,0,0,20
2,1,311,"FiveGo","Go","Go_FiveGo",-0.512393280475221,2.49276038902684,0.5,25
2,1,333,"FiveGo","Go","Go_FiveGo",-0.497959666940708,2.52244423350632,0,26
2,1,419,"FiveGo","Go","Go_FiveGo",-0.483526053406195,2.6222140229663,0.502,27
2,1,392,"FiveGo","Go","Go_FiveGo",-0.469092439871681,2.59328606702046,0.588,28
2,1,414,"FiveGo","Go","Go_FiveGo",-0.454658826337168,2.6170003411209,0.378,29
2,1,0,"FiveGo","NoGo","NoGo_FiveGo",-0.440225212802655,0,0.375,30
2,1,319,"SevenGo","Go","Go_SevenGo",-0.425791599268141,2.50379068305718,0.429,33
2,1,308,"SevenGo","Go","Go_SevenGo",-0.411357985733628,2.48855071650044,0,34
2,1,282,"SevenGo","Go","Go_SevenGo",-0.396924372199115,2.45024910831936,0.254,35
2,1,384,"SevenGo","Go","Go_SevenGo",-0.382490758664602,2.58433122436753,0.379,36
2,1,414,"SevenGo","Go","Go_SevenGo",-0.368057145130088,2.6170003411209,0.409,37
2,1,275,"SevenGo","Go","Go_SevenGo",-0.353623531595575,2.43933269383026,0.343,38
2,1,281,"SevenGo","Go","Go_SevenGo",-0.339189918061062,2.44870631990508,0.421,39
2,0,288,"SevenGo","NoGo","NoGo_SevenGo",-0.324756304526549,2.45939248775923,0.483,40
2,1,315,"OneGo","Go","Go_OneGo",-0.310322690992035,2.4983105537896,0.339,9
2,1,491,"OneGo","Go","Go_OneGo",-0.281455463923009,2.69108149212297,0.474,11
2,1,0,"OneGo","NoGo","NoGo_OneGo",-0.267021850388496,0,0,12
2,1,349,"ThreeGo","Go","Go_ThreeGo",-0.252588236853982,2.54282542695918,0.458,21
2,1,482,"ThreeGo","Go","Go_ThreeGo",-0.238154623319469,2.68304703823885,0.712,22
2,1,312,"ThreeGo","Go","Go_ThreeGo",-0.223721009784956,2.49415459401844,0.438,23
2,1,0,"ThreeGo","NoGo","NoGo_ThreeGo",-0.209287396250442,0,0.499,24
2,1,289,"SevenGo","Go","Go_SevenGo",-0.194853782715929,2.46089784275655,0.338,41
2,1,438,"SevenGo","Go","Go_SevenGo",-0.180420169181416,2.6414741105041,0.416,42
2,1,348,"SevenGo","Go","Go_SevenGo",-0.165986555646903,2.54157924394658,0.398,43
2,1,354,"SevenGo","Go","Go_SevenGo",-0.151552942112389,2.54900326202579,0,44
2,1,344,"SevenGo","Go","Go_SevenGo",-0.137119328577876,2.53655844257153,0.342,45
2,1,397,"SevenGo","Go","Go_SevenGo",-0.122685715043363,2.59879050676312,0.292,46
2,1,331,"SevenGo","Go","Go_SevenGo",-0.10825210150885,2.51982799377572,0.33,47
2,1,0,"SevenGo","NoGo","NoGo_SevenGo",-0.0938184879743363,0,0.279,48
2,1,357,"FiveGo","Go","Go_FiveGo",-0.079384874439823,2.55266821611219,0.293,31
2,1,306,"FiveGo","Go","Go_FiveGo",-0.0649512609053097,2.48572142648158,0.339,32
2,1,304,"FiveGo","Go","Go_FiveGo",-0.0505176473707964,2.48287358360875,0.375,33
2,1,286,"FiveGo","Go","Go_FiveGo",-0.0360840338362832,2.45636603312904,0.348,34
2,1,252,"FiveGo","Go","Go_FiveGo",-0.0216504203017699,2.40140054078154,0.49,35
2,1,0,"FiveGo","NoGo","NoGo_FiveGo",-0.00721680676725664,0,0,36
2,1,260,"OneGo","Go","Go_OneGo",0.00721680676725664,2.41497334797082,0.259,13
2,0,275,"OneGo","NoGo","NoGo_OneGo",0.0216504203017699,2.43933269383026,0.256,14
2,1,326,"ThreeGo","Go","Go_ThreeGo",0.0360840338362832,2.51321760006794,0.379,25
2,1,316,"ThreeGo","Go","Go_ThreeGo",0.0505176473707964,2.4996870826184,0.505,26
2,1,345,"ThreeGo","Go","Go_ThreeGo",0.0649512609053097,2.53781909507327,0.416,27
2,1,0,"ThreeGo","NoGo","NoGo_ThreeGo",0.079384874439823,0,0,28
2,1,290,"SevenGo","Go","Go_SevenGo",0.0938184879743363,2.46239799789896,0.496,49
2,1,247,"SevenGo","Go","Go_SevenGo",0.10825210150885,2.39269695325967,0.334,50
2,1,317,"SevenGo","Go","Go_SevenGo",0.122685715043363,2.50105926221775,0.316,51
2,1,299,"SevenGo","Go","Go_SevenGo",0.137119328577876,2.47567118832443,0.337,52
2,1,353,"SevenGo","Go","Go_SevenGo",0.151552942112389,2.54777470538782,0.359,53
2,1,280,"SevenGo","Go","Go_SevenGo",0.165986555646903,2.44715803134222,0.317,54
2,1,325,"SevenGo","Go","Go_SevenGo",0.180420169181416,2.51188336097887,0.347,55
2,1,0,"SevenGo","NoGo","NoGo_SevenGo",0.194853782715929,0,0,56
2,1,246,"FiveGo","Go","Go_FiveGo",0.209287396250442,2.39093510710338,0.284,37
2,1,228,"FiveGo","Go","Go_FiveGo",0.223721009784956,2.35793484700045,0.346,38
2,1,337,"FiveGo","Go","Go_FiveGo",0.238154623319469,2.52762990087134,0,39
2,1,303,"FiveGo","Go","Go_FiveGo",0.252588236853982,2.4814426285023,0.397,40
2,1,325,"FiveGo","Go","Go_FiveGo",0.267021850388496,2.51188336097887,0.395,41
2,1,0,"FiveGo","NoGo","NoGo_FiveGo",0.281455463923009,0,0,42
2,1,310,"OneGo","Go","Go_OneGo",0.295889077457522,2.49136169383427,0.42,15
2,1,0,"OneGo","NoGo","NoGo_OneGo",0.310322690992035,0,0.393,16
2,1,447,"SevenGo","Go","Go_SevenGo",0.324756304526549,2.65030752313194,0.485,57
2,1,309,"SevenGo","Go","Go_SevenGo",0.339189918061062,2.48995847942483,0.443,58
2,1,330,"SevenGo","Go","Go_SevenGo",0.353623531595575,2.51851393987789,0.417,59
2,1,320,"SevenGo","Go","Go_SevenGo",0.368057145130088,2.50514997831991,0.358,60
2,1,382,"SevenGo","Go","Go_SevenGo",0.382490758664602,2.58206336291171,0.348,61
2,1,315,"SevenGo","Go","Go_SevenGo",0.396924372199115,2.4983105537896,0,62
2,1,353,"SevenGo","Go","Go_SevenGo",0.411357985733628,2.54777470538782,0.293,63
2,1,0,"SevenGo","NoGo","NoGo_SevenGo",0.425791599268141,0,0.386,64
2,1,299,"ThreeGo","Go","Go_ThreeGo",0.440225212802655,2.47567118832443,0.368,29
2,1,313,"ThreeGo","Go","Go_ThreeGo",0.454658826337168,2.49554433754645,0.374,30
2,1,390,"ThreeGo","Go","Go_ThreeGo",0.469092439871681,2.5910646070265,0.284,31
2,0,292,"ThreeGo","NoGo","NoGo_ThreeGo",0.483526053406195,2.46538285144842,0.377,32
2,1,247,"FiveGo","Go","Go_FiveGo",0.497959666940708,2.39269695325967,0.423,43
2,1,332,"FiveGo","Go","Go_FiveGo",0.512393280475221,2.52113808370404,0,44
2,1,322,"FiveGo","Go","Go_FiveGo",0.526826894009734,2.50785587169583,0.345,45
2,1,304,"FiveGo","Go","Go_FiveGo",0.541260507544248,2.48287358360875,0.318,46
2,1,278,"FiveGo","Go","Go_FiveGo",0.555694121078761,2.44404479591808,0.372,47
2,0,316,"FiveGo","NoGo","NoGo_FiveGo",0.570127734613274,2.4996870826184,0,48
2,1,408,"OneGo","Go","Go_OneGo",0.584561348147787,2.61066016308988,0.473,17
2,1,0,"OneGo","NoGo","NoGo_OneGo",0.598994961682301,0,0.366,18
2,1,352,"ThreeGo","Go","Go_ThreeGo",0.613428575216814,2.54654266347813,0.38,33
2,1,334,"ThreeGo","Go","Go_ThreeGo",0.627862188751327,2.52374646681156,0.298,34
2,1,324,"ThreeGo","Go","Go_ThreeGo",0.64229580228584,2.51054501020661,0.317,35
2,1,0,"ThreeGo","NoGo","NoGo_ThreeGo",0.656729415820354,0,0,36
2,1,381,"FiveGo","Go","Go_FiveGo",0.671163029354867,2.58092497567562,0.318,49
2,1,315,"FiveGo","Go","Go_FiveGo",0.68559664288938,2.4983105537896,0.54,50
2,1,305,"FiveGo","Go","Go_FiveGo",0.700030256423894,2.48429983934679,0.474,51
2,1,326,"FiveGo","Go","Go_FiveGo",0.714463869958407,2.51321760006794,0.359,52
2,1,324,"FiveGo","Go","Go_FiveGo",0.72889748349292,2.51054501020661,0.397,53
2,0,322,"FiveGo","NoGo","NoGo_FiveGo",0.743331097027433,2.50785587169583,0.555,54
2,1,309,"SevenGo","Go","Go_SevenGo",0.757764710561947,2.48995847942483,0.441,65
2,1,378,"SevenGo","Go","Go_SevenGo",0.77219832409646,2.57749179983723,0,66
2,1,344,"SevenGo","Go","Go_SevenGo",0.786631937630973,2.53655844257153,0.466,67
2,1,342,"SevenGo","Go","Go_SevenGo",0.801065551165487,2.53402610605613,0.472,68
2,1,324,"SevenGo","Go","Go_SevenGo",0.8154991647,2.51054501020661,0.47,69
2,1,377,"SevenGo","Go","Go_SevenGo",0.829932778234513,2.57634135020579,0.332,70
2,1,359,"SevenGo","Go","Go_SevenGo",0.844366391769026,2.55509444857832,0.393,71
2,1,0,"SevenGo","NoGo","NoGo_SevenGo",0.85880000530354,0,0,72
2,1,281,"FiveGo","Go","Go_FiveGo",0.873233618838053,2.44870631990508,0.538,55
2,1,375,"FiveGo","Go","Go_FiveGo",0.887667232372566,2.57403126772772,0.327,56
2,1,556,"FiveGo","Go","Go_FiveGo",0.902100845907079,2.74507479158206,0.333,57
2,1,362,"FiveGo","Go","Go_FiveGo",0.916534459441593,2.55870857053317,0.387,58
2,1,288,"FiveGo","Go","Go_FiveGo",0.930968072976106,2.45939248775923,0.345,59
2,0,293,"FiveGo","NoGo","NoGo_FiveGo",0.945401686510619,2.46686762035411,0.375,60
2,1,240,"ThreeGo","Go","Go_ThreeGo",0.959835300045133,2.38021124171161,0.428,37
2,1,358,"ThreeGo","Go","Go_ThreeGo",0.974268913579646,2.55388302664387,0,38
2,1,380,"ThreeGo","Go","Go_ThreeGo",0.988702527114159,2.57978359661681,0.302,39
2,1,0,"ThreeGo","NoGo","NoGo_ThreeGo",1.00313614064867,0,0.292,40
2,1,429,"SevenGo","Go","Go_SevenGo",1.01756975418319,2.63245729218472,0.51,73
2,1,347,"SevenGo","Go","Go_SevenGo",1.0320033677177,2.54032947479087,0.316,74
2,1,345,"SevenGo","Go","Go_SevenGo",1.04643698125221,2.53781909507327,0.514,75
2,1,446,"SevenGo","Go","Go_SevenGo",1.06087059478673,2.64933485871214,0,76
2,1,460,"SevenGo","Go","Go_SevenGo",1.07530420832124,2.66275783168157,0.251,77
2,1,466,"SevenGo","Go","Go_SevenGo",1.08973782185575,2.66838591669,0.321,78
2,1,512,"SevenGo","Go","Go_SevenGo",1.10417143539027,2.70926996097583,0.335,79
2,1,0,"SevenGo","NoGo","NoGo_SevenGo",1.11860504892478,0,0.429,80
2,1,368,"OneGo","Go","Go_OneGo",1.13303866245929,2.56584781867352,0.394,19
2,1,0,"OneGo","NoGo","NoGo_OneGo",1.1474722759938,0,0.56,20
2,1,258,"FiveGo","Go","Go_FiveGo",1.16190588952832,2.41161970596323,0.371,61
2,1,424,"FiveGo","Go","Go_FiveGo",1.17633950306283,2.62736585659273,0.376,62
2,1,421,"FiveGo","Go","Go_FiveGo",1.19077311659734,2.62428209583567,0.518,63
2,1,427,"FiveGo","Go","Go_FiveGo",1.20520673013186,2.63042787502502,0.412,64
2,1,529,"FiveGo","Go","Go_FiveGo",1.21964034366637,2.72345567203519,0.45,65
2,1,0,"FiveGo","NoGo","NoGo_FiveGo",1.23407395720088,0,0.416,66
2,1,297,"ThreeGo","Go","Go_ThreeGo",1.2485075707354,2.47275644931721,0.645,41
2,1,351,"ThreeGo","Go","Go_ThreeGo",1.26294118426991,2.54530711646582,0,42
2,1,446,"ThreeGo","Go","Go_ThreeGo",1.27737479780442,2.64933485871214,0.423,43
2,1,0,"ThreeGo","NoGo","NoGo_ThreeGo",1.29180841133894,0,0,44
2,1,342,"OneGo","Go","Go_OneGo",1.30624202487345,2.53402610605613,0.335,21
2,1,0,"OneGo","NoGo","NoGo_OneGo",1.32067563840796,0,0.301,22
2,1,375,"SevenGo","Go","Go_SevenGo",1.33510925194248,2.57403126772772,0.291,81
2,1,445,"SevenGo","Go","Go_SevenGo",1.34954286547699,2.64836001098093,0.369,82
2,1,562,"SevenGo","Go","Go_SevenGo",1.3639764790115,2.74973631556906,0.334,83
2,1,321,"SevenGo","Go","Go_SevenGo",1.37841009254602,2.50650503240487,0.292,84
2,1,279,"SevenGo","Go","Go_SevenGo",1.39284370608053,2.4456042032736,0.496,85
2,1,268,"SevenGo","Go","Go_SevenGo",1.40727731961504,2.42813479402879,0.454,86
2,1,418,"SevenGo","Go","Go_SevenGo",1.42171093314956,2.62117628177504,0.459,87
2,1,0,"SevenGo","NoGo","NoGo_SevenGo",1.43614454668407,0,0,88
2,1,267,"ThreeGo","Go","Go_ThreeGo",1.45057816021858,2.42651126136458,0.532,45
2,1,281,"ThreeGo","Go","Go_ThreeGo",1.4650117737531,2.44870631990508,0.402,46
2,1,358,"ThreeGo","Go","Go_ThreeGo",1.47944538728761,2.55388302664387,0.343,47
2,1,0,"ThreeGo","NoGo","NoGo_ThreeGo",1.49387900082212,0,0.309,48
2,1,280,"FiveGo","Go","Go_FiveGo",1.50831261435664,2.44715803134222,0.417,67
2,1,334,"FiveGo","Go","Go_FiveGo",1.52274622789115,2.52374646681156,0,68
2,1,371,"FiveGo","Go","Go_FiveGo",1.53717984142566,2.56937390961505,0.465,69
2,1,321,"FiveGo","Go","Go_FiveGo",1.55161345496018,2.50650503240487,0.351,70
2,1,439,"FiveGo","Go","Go_FiveGo",1.56604706849469,2.64246452024212,0.301,71
2,1,0,"FiveGo","NoGo","NoGo_FiveGo",1.5804806820292,0,0.411,72
2,1,327,"SevenGo","Go","Go_SevenGo",1.59491429556372,2.51454775266029,0.464,89
2,1,341,"SevenGo","Go","Go_SevenGo",1.60934790909823,2.5327543789925,0,90
2,1,307,"SevenGo","Go","Go_SevenGo",1.62378152263274,2.48713837547719,0.426,91
2,1,281,"SevenGo","Go","Go_SevenGo",1.63821513616726,2.44870631990508,0.44,92
2,1,262,"SevenGo","Go","Go_SevenGo",1.65264874970177,2.41830129131975,0.485,93
2,1,244,"SevenGo","Go","Go_SevenGo",1.66708236323628,2.38738982633873,0.419,94
2,1,282,"SevenGo","Go","Go_SevenGo",1.6815159767708,2.45024910831936,0.465,95
2,0,424,"SevenGo","NoGo","NoGo_SevenGo",1.69594959030531,2.62736585659273,0.526,96
2,1,267,"OneGo","Go","Go_OneGo",1.71038320383982,2.42651126136458,0.5,23
2,0,281,"OneGo","NoGo","NoGo_OneGo",1.72481681737434,2.44870631990508,0,24
3,1,376,"FiveGo","Go","Go_FiveGo",-1.72481681737434,2.57518784492766,0.361,1
3,1,342,"FiveGo","Go","Go_FiveGo",-1.71038320383982,2.53402610605613,0.334,2
3,1,308,"FiveGo","Go","Go_FiveGo",-1.69594959030531,2.48855071650044,0.284,3
3,1,281,"FiveGo","Go","Go_FiveGo",-1.6815159767708,2.44870631990508,0.37,4
3,1,351,"FiveGo","Go","Go_FiveGo",-1.66708236323628,2.54530711646582,0.32,5
3,1,0,"FiveGo","NoGo","NoGo_FiveGo",-1.65264874970177,0,0.277,6
3,1,296,"OneGo","Go","Go_OneGo",-1.63821513616726,2.47129171105894,0.259,1
3,1,0,"OneGo","NoGo","NoGo_OneGo",-1.62378152263274,0,0,2
3,1,489,"ThreeGo","Go","Go_ThreeGo",-1.60934790909823,2.68930885912362,0.324,1
3,1,327,"ThreeGo","Go","Go_ThreeGo",-1.59491429556372,2.51454775266029,0.281,2
3,1,309,"ThreeGo","Go","Go_ThreeGo",-1.5804806820292,2.48995847942483,0.287,3
3,1,0,"ThreeGo","NoGo","NoGo_ThreeGo",-1.56604706849469,0,0.269,4
3,1,293,"SevenGo","Go","Go_SevenGo",-1.55161345496018,2.46686762035411,0.441,1
3,1,363,"SevenGo","Go","Go_SevenGo",-1.53717984142566,2.55990662503611,0.334,2
3,1,361,"SevenGo","Go","Go_SevenGo",-1.52274622789115,2.55750720190566,0.332,3
3,1,326,"SevenGo","Go","Go_SevenGo",-1.50831261435664,2.51321760006794,0.322,4
3,1,316,"SevenGo","Go","Go_SevenGo",-1.49387900082212,2.4996870826184,0.368,5
3,1,314,"SevenGo","Go","Go_SevenGo",-1.47944538728761,2.49692964807321,0,6
3,1,336,"SevenGo","Go","Go_SevenGo",-1.4650117737531,2.52633927738984,0.312,7
3,1,0,"SevenGo","NoGo","NoGo_SevenGo",-1.45057816021858,0,0.278,8
3,1,377,"OneGo","Go","Go_OneGo",-1.43614454668407,2.57634135020579,0.33,3
3,0,327,"OneGo","NoGo","NoGo_OneGo",-1.42171093314956,2.51454775266029,0.367,4
3,1,490,"SevenGo","Go","Go_SevenGo",-1.40727731961504,2.69019608002851,0.341,9
3,1,335,"SevenGo","Go","Go_SevenGo",-1.39284370608053,2.52504480703685,0.331,10
3,1,349,"SevenGo","Go","Go_SevenGo",-1.37841009254602,2.54282542695918,0.313,11
3,1,339,"SevenGo","Go","Go_SevenGo",-1.3639764790115,2.53019969820308,0,12
3,1,465,"SevenGo","Go","Go_SevenGo",-1.34954286547699,2.66745295288995,0.329,13
3,1,343,"SevenGo","Go","Go_SevenGo",-1.33510925194248,2.53529412004277,0.351,14
3,1,356,"SevenGo","Go","Go_SevenGo",-1.32067563840796,2.55144999797288,0.365,15
3,1,0,"SevenGo","NoGo","NoGo_SevenGo",-1.30624202487345,0,0,16
3,1,366,"FiveGo","Go","Go_FiveGo",-1.29180841133894,2.56348108539441,0.318,7
3,1,323,"FiveGo","Go","Go_FiveGo",-1.27737479780442,2.5092025223311,0.348,8
3,1,329,"FiveGo","Go","Go_FiveGo",-1.26294118426991,2.51719589794997,0.362,9
3,1,319,"FiveGo","Go","Go_FiveGo",-1.2485075707354,2.50379068305718,0.319,10
3,1,341,"FiveGo","Go","Go_FiveGo",-1.23407395720088,2.5327543789925,0.325,11
3,1,0,"FiveGo","NoGo","NoGo_FiveGo",-1.21964034366637,0,0.371,12
3,1,293,"ThreeGo","Go","Go_ThreeGo",-1.20520673013186,2.46686762035411,0.313,5
3,1,339,"ThreeGo","Go","Go_ThreeGo",-1.19077311659734,2.53019969820308,0,6
3,1,329,"ThreeGo","Go","Go_ThreeGo",-1.17633950306283,2.51719589794997,0.265,7
3,1,0,"ThreeGo","NoGo","NoGo_ThreeGo",-1.16190588952832,0,0,8
3,1,426,"SevenGo","Go","Go_SevenGo",-1.1474722759938,2.62940959910272,0.331,17
3,1,296,"SevenGo","Go","Go_SevenGo",-1.13303866245929,2.47129171105894,0.336,18
3,1,358,"SevenGo","Go","Go_SevenGo",-1.11860504892478,2.55388302664387,0.334,19
3,1,348,"SevenGo","Go","Go_SevenGo",-1.10417143539027,2.54157924394658,0.372,20
3,1,449,"SevenGo","Go","Go_SevenGo",-1.08973782185575,2.65224634100332,0.346,21
3,1,311,"SevenGo","Go","Go_SevenGo",-1.07530420832124,2.49276038902684,0.335,22
3,1,365,"SevenGo","Go","Go_SevenGo",-1.06087059478673,2.56229286445647,0.333,23
3,0,339,"SevenGo","NoGo","NoGo_SevenGo",-1.04643698125221,2.53019969820308,0.299,24
3,1,310,"FiveGo","Go","Go_FiveGo",-1.0320033677177,2.49136169383427,0.374,13
3,1,300,"FiveGo","Go","Go_FiveGo",-1.01756975418319,2.47712125471966,0,14
3,1,322,"FiveGo","Go","Go_FiveGo",-1.00313614064867,2.50785587169583,0.351,15
3,1,344,"FiveGo","Go","Go_FiveGo",-0.988702527114159,2.53655844257153,0.421,16
3,1,333,"FiveGo","Go","Go_FiveGo",-0.974268913579646,2.52244423350632,0.531,17
3,1,0,"FiveGo","NoGo","NoGo_FiveGo",-0.959835300045133,0,0,18
3,1,286,"OneGo","Go","Go_OneGo",-0.945401686510619,2.45636603312904,0.259,5
3,0,276,"OneGo","NoGo","NoGo_OneGo",-0.930968072976106,2.44090908206522,0.401,6
3,1,326,"ThreeGo","Go","Go_ThreeGo",-0.916534459441593,2.51321760006794,0.415,9
3,1,356,"ThreeGo","Go","Go_ThreeGo",-0.902100845907079,2.55144999797288,0.324,10
3,1,339,"ThreeGo","Go","Go_ThreeGo",-0.887667232372566,2.53019969820308,0.322,11
3,1,0,"ThreeGo","NoGo","NoGo_ThreeGo",-0.873233618838053,0,0,12
3,1,267,"ThreeGo","Go","Go_ThreeGo",-0.85880000530354,2.42651126136458,0.34,13
3,1,369,"ThreeGo","Go","Go_ThreeGo",-0.844366391769026,2.56702636615906,0.345,14
3,1,319,"ThreeGo","Go","Go_ThreeGo",-0.829932778234513,2.50379068305718,0.311,15
3,1,0,"ThreeGo","NoGo","NoGo_ThreeGo",-0.8154991647,0,0.349,16
3,1,375,"OneGo","Go","Go_OneGo",-0.801065551165487,2.57403126772772,0.307,7
3,1,0,"OneGo","NoGo","NoGo_OneGo",-0.786631937630973,0,0.368,8
3,1,305,"SevenGo","Go","Go_SevenGo",-0.77219832409646,2.48429983934679,0.326,25
3,1,455,"SevenGo","Go","Go_SevenGo",-0.757764710561947,2.65801139665711,0,26
3,1,508,"SevenGo","Go","Go_SevenGo",-0.743331097027433,2.70586371228392,0.327,27
3,1,346,"SevenGo","Go","Go_SevenGo",-0.72889748349292,2.53907609879278,0.341,28
3,1,312,"SevenGo","Go","Go_SevenGo",-0.714463869958407,2.49415459401844,0.347,29
3,1,326,"SevenGo","Go","Go_SevenGo",-0.700030256423894,2.51321760006794,0.385,30
3,1,307,"SevenGo","Go","Go_SevenGo",-0.68559664288938,2.48713837547719,0.375,31
3,1,0,"SevenGo","NoGo","NoGo_SevenGo",-0.671163029354867,0,0,32
3,1,260,"FiveGo","Go","Go_FiveGo",-0.656729415820354,2.41497334797082,0.319,19
3,1,299,"FiveGo","Go","Go_FiveGo",-0.64229580228584,2.47567118832443,0,20
3,1,352,"FiveGo","Go","Go_FiveGo",-0.627862188751327,2.54654266347813,0.288,21
3,1,398,"FiveGo","Go","Go_FiveGo",-0.613428575216814,2.59988307207369,0.333,22
3,1,364,"FiveGo","Go","Go_FiveGo",-0.598994961682301,2.56110138364906,0.34,23
3,0,362,"FiveGo","NoGo","NoGo_FiveGo",-0.584561348147787,2.55870857053317,0,24
3,1,378,"ThreeGo","Go","Go_ThreeGo",-0.570127734613274,2.57749179983723,0.562,17
3,1,343,"ThreeGo","Go","Go_ThreeGo",-0.555694121078761,2.53529412004277,0.336,18
3,1,350,"ThreeGo","Go","Go_ThreeGo",-0.541260507544248,2.54406804435028,0.334,19
3,0,284,"ThreeGo","NoGo","NoGo_ThreeGo",-0.526826894009734,2.45331834004704,0,20
3,1,295,"FiveGo","Go","Go_FiveGo",-0.512393280475221,2.46982201597816,0.311,25
3,1,284,"FiveGo","Go","Go_FiveGo",-0.497959666940708,2.45331834004704,0.333,26
3,1,362,"FiveGo","Go","Go_FiveGo",-0.483526053406195,2.55870857053317,0.419,27
3,1,328,"FiveGo","Go","Go_FiveGo",-0.469092439871681,2.51587384371168,0.392,28
3,1,326,"FiveGo","Go","Go_FiveGo",-0.454658826337168,2.51321760006794,0.414,29
3,1,0,"FiveGo","NoGo","NoGo_FiveGo",-0.440225212802655,0,0,30
3,1,271,"OneGo","Go","Go_OneGo",-0.425791599268141,2.43296929087441,0.319,9
3,1,0,"OneGo","NoGo","NoGo_OneGo",-0.411357985733628,0,0.308,10
3,1,336,"SevenGo","Go","Go_SevenGo",-0.396924372199115,2.52633927738984,0.282,33
3,1,294,"SevenGo","Go","Go_SevenGo",-0.382490758664602,2.46834733041216,0.384,34
3,1,379,"SevenGo","Go","Go_SevenGo",-0.368057145130088,2.57863920996807,0.414,35
3,1,281,"SevenGo","Go","Go_SevenGo",-0.353623531595575,2.44870631990508,0.275,36
3,1,263,"SevenGo","Go","Go_SevenGo",-0.339189918061062,2.41995574848976,0.281,37
3,1,332,"SevenGo","Go","Go_SevenGo",-0.324756304526549,2.52113808370404,0.288,38
3,1,426,"SevenGo","Go","Go_SevenGo",-0.310322690992035,2.62940959910272,0.315,39
3,0,272,"SevenGo","NoGo","NoGo_SevenGo",-0.295889077457522,2.4345689040342,0.032,40
3,1,388,"ThreeGo","Go","Go_ThreeGo",-0.281455463923009,2.58883172559421,0.491,21
3,1,361,"ThreeGo","Go","Go_ThreeGo",-0.267021850388496,2.55750720190566,0,22
3,1,295,"ThreeGo","Go","Go_ThreeGo",-0.252588236853982,2.46982201597816,0.349,23
3,1,0,"ThreeGo","NoGo","NoGo_ThreeGo",-0.238154623319469,0,0.482,24
3,1,544,"OneGo","Go","Go_OneGo",-0.223721009784956,2.73559889969818,0.312,11
3,0,446,"OneGo","NoGo","NoGo_OneGo",-0.209287396250442,2.64933485871214,0,12
3,1,272,"FiveGo","Go","Go_FiveGo",-0.194853782715929,2.4345689040342,0.289,31
3,1,422,"FiveGo","Go","Go_FiveGo",-0.180420169181416,2.62531245096167,0.438,32
3,1,565,"FiveGo","Go","Go_FiveGo",-0.165986555646903,2.75204844781944,0.348,33
3,1,411,"FiveGo","Go","Go_FiveGo",-0.151552942112389,2.61384182187607,0.354,34
3,1,344,"FiveGo","Go","Go_FiveGo",-0.137119328577876,2.53655844257153,0.344,35
3,1,0,"FiveGo","NoGo","NoGo_FiveGo",-0.122685715043363,0,0.397,36
3,1,273,"SevenGo","Go","Go_SevenGo",-0.10825210150885,2.43616264704076,0.331,41
3,1,351,"SevenGo","Go","Go_SevenGo",-0.0938184879743363,2.54530711646582,0,42
3,1,364,"SevenGo","Go","Go_SevenGo",-0.079384874439823,2.56110138364906,0.357,43
3,1,290,"SevenGo","Go","Go_SevenGo",-0.0649512609053097,2.46239799789896,0.306,44
3,1,336,"SevenGo","Go","Go_SevenGo",-0.0505176473707964,2.52633927738984,0.304,45
3,1,390,"SevenGo","Go","Go_SevenGo",-0.0360840338362832,2.5910646070265,0.286,46
3,1,459,"SevenGo","Go","Go_SevenGo",-0.0216504203017699,2.66181268553726,0.252,47
3,0,409,"SevenGo","NoGo","NoGo_SevenGo",-0.00721680676725664,2.61172330800734,0,48
3,1,301,"SevenGo","Go","Go_SevenGo",0.00721680676725664,2.47856649559384,0.26,49
3,1,243,"SevenGo","Go","Go_SevenGo",0.0216504203017699,2.38560627359831,0.275,50
3,1,432,"SevenGo","Go","Go_SevenGo",0.0360840338362832,2.63548374681491,0.326,51
3,1,326,"SevenGo","Go","Go_SevenGo",0.0505176473707964,2.51321760006794,0.316,52
3,1,324,"SevenGo","Go","Go_SevenGo",0.0649512609053097,2.51054501020661,0.345,53
3,1,258,"SevenGo","Go","Go_SevenGo",0.079384874439823,2.41161970596323,0,54
3,1,359,"SevenGo","Go","Go_SevenGo",0.0938184879743363,2.55509444857832,0.29,55
3,1,0,"SevenGo","NoGo","NoGo_SevenGo",0.10825210150885,0,0.247,56
3,1,296,"ThreeGo","Go","Go_ThreeGo",0.122685715043363,2.47129171105894,0.317,25
3,1,358,"ThreeGo","Go","Go_ThreeGo",0.137119328577876,2.55388302664387,0.299,26
3,1,331,"ThreeGo","Go","Go_ThreeGo",0.151552942112389,2.51982799377572,0.353,27
3,1,0,"ThreeGo","NoGo","NoGo_ThreeGo",0.165986555646903,0,0.28,28
3,1,245,"FiveGo","Go","Go_FiveGo",0.180420169181416,2.38916608436453,0.325,37
3,1,307,"FiveGo","Go","Go_FiveGo",0.194853782715929,2.48713837547719,0,38
3,1,408,"FiveGo","Go","Go_FiveGo",0.209287396250442,2.61066016308988,0.246,39
3,1,318,"FiveGo","Go","Go_FiveGo",0.223721009784956,2.50242711998443,0.228,40
3,1,348,"FiveGo","Go","Go_FiveGo",0.238154623319469,2.54157924394658,0.337,41
3,1,0,"FiveGo","NoGo","NoGo_FiveGo",0.252588236853982,0,0.303,42
3,1,268,"OneGo","Go","Go_OneGo",0.267021850388496,2.42813479402879,0.325,13
3,1,0,"OneGo","NoGo","NoGo_OneGo",0.281455463923009,0,0,14
3,1,374,"SevenGo","Go","Go_SevenGo",0.295889077457522,2.57287160220048,0.31,57
3,1,316,"SevenGo","Go","Go_SevenGo",0.310322690992035,2.4996870826184,0,58
3,1,313,"SevenGo","Go","Go_SevenGo",0.324756304526549,2.49554433754645,0.447,59
3,1,351,"SevenGo","Go","Go_SevenGo",0.339189918061062,2.54530711646582,0.309,60
3,1,485,"SevenGo","Go","Go_SevenGo",0.353623531595575,2.68574173860226,0.33,61
3,1,403,"SevenGo","Go","Go_SevenGo",0.368057145130088,2.60530504614111,0.32,62
3,1,424,"SevenGo","Go","Go_SevenGo",0.382490758664602,2.62736585659273,0.382,63
3,1,0,"SevenGo","NoGo","NoGo_SevenGo",0.396924372199115,0,0.315,64
3,1,249,"FiveGo","Go","Go_FiveGo",0.411357985733628,2.39619934709574,0.353,43
3,1,520,"FiveGo","Go","Go_FiveGo",0.425791599268141,2.7160033436348,0,44
3,1,285,"FiveGo","Go","Go_FiveGo",0.440225212802655,2.45484486000851,0.299,45
3,1,259,"FiveGo","Go","Go_FiveGo",0.454658826337168,2.41329976408125,0.313,46
3,1,265,"FiveGo","Go","Go_FiveGo",0.469092439871681,2.42324587393681,0.39,47
3,1,0,"FiveGo","NoGo","NoGo_FiveGo",0.483526053406195,0,0.292,48
3,1,297,"OneGo","Go","Go_OneGo",0.497959666940708,2.47275644931721,0.247,15
3,1,0,"OneGo","NoGo","NoGo_OneGo",0.512393280475221,0,0.332,16
3,1,250,"ThreeGo","Go","Go_ThreeGo",0.526826894009734,2.39794000867204,0.322,29
3,1,576,"ThreeGo","Go","Go_ThreeGo",0.541260507544248,2.76042248342321,0.304,30
3,1,454,"ThreeGo","Go","Go_ThreeGo",0.555694121078761,2.6570558528571,0.278,31
3,1,0,"ThreeGo","NoGo","NoGo_ThreeGo",0.570127734613274,0,0.316,32
3,0,322,"OneGo","NoGo","NoGo_OneGo",0.598994961682301,2.50785587169583,0,18
3,1,310,"FiveGo","Go","Go_FiveGo",0.613428575216814,2.49136169383427,0.352,49
3,1,292,"FiveGo","Go","Go_FiveGo",0.627862188751327,2.46538285144842,0.334,50
3,1,313,"FiveGo","Go","Go_FiveGo",0.64229580228584,2.49554433754645,0.324,51
3,1,271,"FiveGo","Go","Go_FiveGo",0.656729415820354,2.43296929087441,0,52
3,1,285,"FiveGo","Go","Go_FiveGo",0.671163029354867,2.45484486000851,0.381,53
3,0,227,"FiveGo","NoGo","NoGo_FiveGo",0.68559664288938,2.35602585719312,0.315,54
3,1,477,"ThreeGo","Go","Go_ThreeGo",0.700030256423894,2.67851837904011,0.305,33
3,1,307,"ThreeGo","Go","Go_ThreeGo",0.714463869958407,2.48713837547719,0.326,34
3,1,273,"ThreeGo","Go","Go_ThreeGo",0.72889748349292,2.43616264704076,0.324,35
3,1,0,"ThreeGo","NoGo","NoGo_ThreeGo",0.743331097027433,0,0.322,36
3,1,250,"SevenGo","Go","Go_SevenGo",0.757764710561947,2.39794000867204,0.309,65
3,1,320,"SevenGo","Go","Go_SevenGo",0.77219832409646,2.50514997831991,0.378,66
3,1,318,"SevenGo","Go","Go_SevenGo",0.786631937630973,2.50242711998443,0.344,67
3,1,308,"SevenGo","Go","Go_SevenGo",0.801065551165487,2.48855071650044,0.342,68
3,1,281,"SevenGo","Go","Go_SevenGo",0.8154991647,2.44870631990508,0.324,69
3,1,255,"SevenGo","Go","Go_SevenGo",0.829932778234513,2.40654018043396,0.377,70
3,1,253,"SevenGo","Go","Go_SevenGo",0.844366391769026,2.40312052117582,0.359,71
3,0,299,"SevenGo","NoGo","NoGo_SevenGo",0.85880000530354,2.47567118832443,0,72
3,1,277,"SevenGo","Go","Go_SevenGo",0.873233618838053,2.44247976906445,0.281,73
3,1,291,"SevenGo","Go","Go_SevenGo",0.887667232372566,2.46389298898591,0.375,74
3,1,329,"SevenGo","Go","Go_SevenGo",0.902100845907079,2.51719589794997,0.556,75
3,1,287,"SevenGo","Go","Go_SevenGo",0.916534459441593,2.45788189673399,0.362,76
3,1,302,"SevenGo","Go","Go_SevenGo",0.930968072976106,2.48000694295715,0.288,77
3,1,355,"SevenGo","Go","Go_SevenGo",0.945401686510619,2.55022835305509,0.293,78
3,1,321,"SevenGo","Go","Go_SevenGo",0.959835300045133,2.50650503240487,0.24,79
3,1,0,"SevenGo","NoGo","NoGo_SevenGo",0.974268913579646,0,0.358,80
3,1,257,"OneGo","Go","Go_OneGo",0.988702527114159,2.40993312333129,0.38,19
3,1,0,"OneGo","NoGo","NoGo_OneGo",1.00313614064867,0,0,20
3,1,322,"ThreeGo","Go","Go_ThreeGo",1.01756975418319,2.50785587169583,0.429,37
3,1,321,"ThreeGo","Go","Go_ThreeGo",1.0320033677177,2.50650503240487,0.347,38
3,1,302,"ThreeGo","Go","Go_ThreeGo",1.04643698125221,2.48000694295715,0.345,39
3,1,0,"ThreeGo","NoGo","NoGo_ThreeGo",1.06087059478673,0,0.446,40
3,1,295,"FiveGo","Go","Go_FiveGo",1.07530420832124,2.46982201597816,0.46,55
3,1,405,"FiveGo","Go","Go_FiveGo",1.08973782185575,2.60745502321467,0.466,56
3,1,298,"FiveGo","Go","Go_FiveGo",1.10417143539027,2.47421626407626,0.512,57
3,1,352,"FiveGo","Go","Go_FiveGo",1.11860504892478,2.54654266347813,0,58
3,1,374,"FiveGo","Go","Go_FiveGo",1.13303866245929,2.57287160220048,0.368,59
3,1,0,"FiveGo","NoGo","NoGo_FiveGo",1.1474722759938,0,0,60
3,1,278,"ThreeGo","Go","Go_ThreeGo",1.16190588952832,2.44404479591808,0.258,41
3,1,285,"ThreeGo","Go","Go_ThreeGo",1.17633950306283,2.45484486000851,0.424,42
3,1,459,"ThreeGo","Go","Go_ThreeGo",1.19077311659734,2.66181268553726,0.421,43
3,1,0,"ThreeGo","NoGo","NoGo_ThreeGo",1.20520673013186,0,0.427,44
3,1,283,"FiveGo","Go","Go_FiveGo",1.21964034366637,2.45178643552429,0.529,61
3,1,329,"FiveGo","Go","Go_FiveGo",1.23407395720088,2.51719589794997,0,62
3,1,271,"FiveGo","Go","Go_FiveGo",1.2485075707354,2.43296929087441,0.297,63
3,1,405,"FiveGo","Go","Go_FiveGo",1.26294118426991,2.60745502321467,0.351,64
3,1,322,"FiveGo","Go","Go_FiveGo",1.27737479780442,2.50785587169583,0.446,65
3,1,0,"FiveGo","NoGo","NoGo_FiveGo",1.29180841133894,0,0,66
3,1,284,"OneGo","Go","Go_OneGo",1.30624202487345,2.45331834004704,0.342,21
3,1,0,"OneGo","NoGo","NoGo_OneGo",1.32067563840796,0,0,22
3,1,404,"SevenGo","Go","Go_SevenGo",1.33510925194248,2.60638136511061,0.375,81
3,1,306,"SevenGo","Go","Go_SevenGo",1.34954286547699,2.48572142648158,0.445,82
3,1,352,"SevenGo","Go","Go_SevenGo",1.3639764790115,2.54654266347813,0.562,83
3,1,270,"SevenGo","Go","Go_SevenGo",1.37841009254602,2.43136376415899,0.321,84
3,1,315,"SevenGo","Go","Go_SevenGo",1.39284370608053,2.4983105537896,0.279,85
3,1,337,"SevenGo","Go","Go_SevenGo",1.40727731961504,2.52762990087134,0.268,86
3,1,287,"SevenGo","Go","Go_SevenGo",1.42171093314956,2.45788189673399,0.418,87
3,1,0,"SevenGo","NoGo","NoGo_SevenGo",1.43614454668407,0,0,88
3,1,312,"FiveGo","Go","Go_FiveGo",1.45057816021858,2.49415459401844,0.267,67
3,1,334,"FiveGo","Go","Go_FiveGo",1.4650117737531,2.52374646681156,0.281,68
3,1,324,"FiveGo","Go","Go_FiveGo",1.47944538728761,2.51054501020661,0.358,69
3,1,458,"FiveGo","Go","Go_FiveGo",1.49387900082212,2.66086547800387,0,70
3,1,303,"FiveGo","Go","Go_FiveGo",1.50831261435664,2.4814426285023,0.28,71
3,1,0,"FiveGo","NoGo","NoGo_FiveGo",1.52274622789115,0,0.334,72
3,1,224,"SevenGo","Go","Go_SevenGo",1.53717984142566,2.35024801833416,0.371,89
3,1,254,"SevenGo","Go","Go_SevenGo",1.55161345496018,2.40483371661994,0.321,90
3,1,211,"SevenGo","Go","Go_SevenGo",1.56604706849469,2.32428245529769,0.439,91
3,1,417,"SevenGo","Go","Go_SevenGo",1.5804806820292,2.62013605497376,0,92
3,1,351,"SevenGo","Go","Go_SevenGo",1.59491429556372,2.54530711646582,0.327,93
3,1,253,"SevenGo","Go","Go_SevenGo",1.60934790909823,2.40312052117582,0.341,94
3,1,354,"SevenGo","Go","Go_SevenGo",1.62378152263274,2.54900326202579,0.307,95
3,0,408,"SevenGo","NoGo","NoGo_SevenGo",1.63821513616726,2.61066016308988,0.281,96
3,1,300,"ThreeGo","Go","Go_ThreeGo",1.65264874970177,2.47712125471966,0.262,45
3,1,242,"ThreeGo","Go","Go_ThreeGo",1.66708236323628,2.38381536598043,0.244,46
3,1,279,"ThreeGo","Go","Go_ThreeGo",1.6815159767708,2.4456042032736,0.282,47
3,1,0,"ThreeGo","NoGo","NoGo_ThreeGo",1.69594959030531,0,0.424,48
3,1,296,"OneGo","Go","Go_OneGo",1.71038320383982,2.47129171105894,0.267,23
3,0,302,"OneGo","NoGo","NoGo_OneGo",1.72481681737434,2.48000694295715,0.281,24
4,1,412,"SevenGo","Go","Go_SevenGo",-1.72481681737434,2.61489721603313,0.376,1
4,1,354,"SevenGo","Go","Go_SevenGo",-1.71038320383982,2.54900326202579,0.342,2
4,1,352,"SevenGo","Go","Go_SevenGo",-1.69594959030531,2.54654266347813,0.308,3
4,1,326,"SevenGo","Go","Go_SevenGo",-1.6815159767708,2.51321760006794,0.281,4
4,1,363,"SevenGo","Go","Go_SevenGo",-1.66708236323628,2.55990662503611,0.351,5
4,1,345,"SevenGo","Go","Go_SevenGo",-1.65264874970177,2.53781909507327,0,6
4,1,383,"SevenGo","Go","Go_SevenGo",-1.63821513616726,2.58319877396862,0.296,7
4,1,0,"SevenGo","NoGo","NoGo_SevenGo",-1.62378152263274,0,0,8
4,1,327,"OneGo","Go","Go_OneGo",-1.60934790909823,2.51454775266029,0.489,1
4,1,0,"OneGo","NoGo","NoGo_OneGo",-1.59491429556372,0,0.327,2
4,1,377,"ThreeGo","Go","Go_ThreeGo",-1.5804806820292,2.57634135020579,0.309,1
4,1,447,"ThreeGo","Go","Go_ThreeGo",-1.56604706849469,2.65030752313194,0,2
4,1,331,"ThreeGo","Go","Go_ThreeGo",-1.55161345496018,2.51982799377572,0.293,3
4,0,322,"ThreeGo","NoGo","NoGo_ThreeGo",-1.53717984142566,2.50785587169583,0.363,4
4,1,341,"FiveGo","Go","Go_FiveGo",-1.52274622789115,2.5327543789925,0.361,1
4,1,363,"FiveGo","Go","Go_FiveGo",-1.50831261435664,2.55990662503611,0.326,2
4,1,337,"FiveGo","Go","Go_FiveGo",-1.49387900082212,2.52762990087134,0.316,3
4,1,382,"FiveGo","Go","Go_FiveGo",-1.47944538728761,2.58206336291171,0.314,4
4,1,348,"FiveGo","Go","Go_FiveGo",-1.4650117737531,2.54157924394658,0.336,5
4,0,306,"FiveGo","NoGo","NoGo_FiveGo",-1.45057816021858,2.48572142648158,0,6
4,1,366,"ThreeGo","Go","Go_ThreeGo",-1.43614454668407,2.56348108539441,0.377,5
4,1,379,"ThreeGo","Go","Go_ThreeGo",-1.42171093314956,2.57863920996807,0.327,6
4,1,313,"ThreeGo","Go","Go_ThreeGo",-1.40727731961504,2.49554433754645,0.49,7
4,1,0,"ThreeGo","NoGo","NoGo_ThreeGo",-1.39284370608053,0,0.335,8
4,1,346,"SevenGo","Go","Go_SevenGo",-1.37841009254602,2.53907609879278,0.349,9
4,1,367,"SevenGo","Go","Go_SevenGo",-1.3639764790115,2.56466606425209,0.339,10
4,1,349,"SevenGo","Go","Go_SevenGo",-1.34954286547699,2.54282542695918,0.465,11
4,1,347,"SevenGo","Go","Go_SevenGo",-1.33510925194248,2.54032947479087,0.343,12
4,1,345,"SevenGo","Go","Go_SevenGo",-1.32067563840796,2.53781909507327,0.356,13
4,1,326,"SevenGo","Go","Go_SevenGo",-1.30624202487345,2.51321760006794,0,14
4,1,396,"SevenGo","Go","Go_SevenGo",-1.29180841133894,2.59769518592551,0.366,15
4,1,0,"SevenGo","NoGo","NoGo_SevenGo",-1.27737479780442,0,0.323,16
4,1,358,"OneGo","Go","Go_OneGo",-1.26294118426991,2.55388302664387,0.329,3
4,1,0,"OneGo","NoGo","NoGo_OneGo",-1.2485075707354,0,0.319,4
4,1,390,"FiveGo","Go","Go_FiveGo",-1.23407395720088,2.5910646070265,0.341,7
4,1,380,"FiveGo","Go","Go_FiveGo",-1.21964034366637,2.57978359661681,0,8
4,1,346,"FiveGo","Go","Go_FiveGo",-1.20520673013186,2.53907609879278,0.293,9
4,1,351,"FiveGo","Go","Go_FiveGo",-1.19077311659734,2.54530711646582,0.339,10
4,1,333,"FiveGo","Go","Go_FiveGo",-1.17633950306283,2.52244423350632,0.329,11
4,1,0,"FiveGo","NoGo","NoGo_FiveGo",-1.16190588952832,0,0,12
4,1,326,"SevenGo","Go","Go_SevenGo",-1.1474722759938,2.51321760006794,0.426,17
4,1,340,"SevenGo","Go","Go_SevenGo",-1.13303866245929,2.53147891704225,0.296,18
4,1,362,"SevenGo","Go","Go_SevenGo",-1.11860504892478,2.55870857053317,0.358,19
4,1,384,"SevenGo","Go","Go_SevenGo",-1.10417143539027,2.58433122436753,0.348,20
4,1,310,"SevenGo","Go","Go_SevenGo",-1.08973782185575,2.49136169383427,0.449,21
4,1,323,"SevenGo","Go","Go_SevenGo",-1.07530420832124,2.5092025223311,0.311,22
4,1,265,"SevenGo","Go","Go_SevenGo",-1.06087059478673,2.42324587393681,0.365,23
4,1,0,"SevenGo","NoGo","NoGo_SevenGo",-1.04643698125221,0,0.339,24
4,1,394,"FiveGo","Go","Go_FiveGo",-1.0320033677177,2.59549622182557,0.31,13
4,1,367,"FiveGo","Go","Go_FiveGo",-1.01756975418319,2.56466606425209,0.3,14
4,1,357,"FiveGo","Go","Go_FiveGo",-1.00313614064867,2.55266821611219,0.322,15
4,1,347,"FiveGo","Go","Go_FiveGo",-0.988702527114159,2.54032947479087,0.344,16
4,1,370,"FiveGo","Go","Go_FiveGo",-0.974268913579646,2.56820172406699,0.333,17
4,1,0,"FiveGo","NoGo","NoGo_FiveGo",-0.959835300045133,0,0,18
4,1,314,"OneGo","Go","Go_OneGo",-0.945401686510619,2.49692964807321,0.286,5
4,1,0,"OneGo","NoGo","NoGo_OneGo",-0.930968072976106,0,0.276,6
4,1,315,"ThreeGo","Go","Go_ThreeGo",-0.916534459441593,2.4983105537896,0.326,9
4,1,368,"ThreeGo","Go","Go_ThreeGo",-0.902100845907079,2.56584781867352,0.356,10
4,1,318,"ThreeGo","Go","Go_ThreeGo",-0.887667232372566,2.50242711998443,0.339,11
4,1,0,"ThreeGo","NoGo","NoGo_ThreeGo",-0.873233618838053,0,0,12
4,1,320,"ThreeGo","Go","Go_ThreeGo",-0.85880000530354,2.50514997831991,0.267,13
4,1,333,"ThreeGo","Go","Go_ThreeGo",-0.844366391769026,2.52244423350632,0.369,14
4,1,283,"ThreeGo","Go","Go_ThreeGo",-0.829932778234513,2.45178643552429,0.319,15
4,1,0,"ThreeGo","NoGo","NoGo_ThreeGo",-0.8154991647,0,0,16
4,1,340,"OneGo","Go","Go_OneGo",-0.801065551165487,2.53147891704225,0.375,7
4,1,0,"OneGo","NoGo","NoGo_OneGo",-0.786631937630973,0,0,8
4,1,309,"SevenGo","Go","Go_SevenGo",-0.77219832409646,2.48995847942483,0.305,25
4,1,363,"SevenGo","Go","Go_SevenGo",-0.757764710561947,2.55990662503611,0.455,26
4,1,353,"SevenGo","Go","Go_SevenGo",-0.743331097027433,2.54777470538782,0.508,27
4,1,342,"SevenGo","Go","Go_SevenGo",-0.72889748349292,2.53402610605613,0.346,28
4,1,340,"SevenGo","Go","Go_SevenGo",-0.714463869958407,2.53147891704225,0.312,29
4,1,410,"SevenGo","Go","Go_SevenGo",-0.700030256423894,2.61278385671974,0.326,30
4,1,288,"SevenGo","Go","Go_SevenGo",-0.68559664288938,2.45939248775923,0.307,31
4,1,0,"SevenGo","NoGo","NoGo_SevenGo",-0.671163029354867,0,0,32
4,1,288,"FiveGo","Go","Go_FiveGo",-0.656729415820354,2.45939248775923,0.26,19
4,1,318,"FiveGo","Go","Go_FiveGo",-0.64229580228584,2.50242711998443,0.299,20
4,1,324,"FiveGo","Go","Go_FiveGo",-0.627862188751327,2.51054501020661,0.352,21
4,1,377,"FiveGo","Go","Go_FiveGo",-0.613428575216814,2.57634135020579,0.398,22
4,1,367,"FiveGo","Go","Go_FiveGo",-0.598994961682301,2.56466606425209,0.364,23
4,1,0,"FiveGo","NoGo","NoGo_FiveGo",-0.584561348147787,0,0.362,24
4,1,354,"FiveGo","Go","Go_FiveGo",-0.570127734613274,2.54900326202579,0.378,25
4,1,312,"FiveGo","Go","Go_FiveGo",-0.555694121078761,2.49415459401844,0.343,26
4,1,318,"FiveGo","Go","Go_FiveGo",-0.541260507544248,2.50242711998443,0.35,27
4,1,324,"FiveGo","Go","Go_FiveGo",-0.526826894009734,2.51054501020661,0.284,28
4,1,353,"FiveGo","Go","Go_FiveGo",-0.512393280475221,2.54777470538782,0.295,29
4,1,0,"FiveGo","NoGo","NoGo_FiveGo",-0.497959666940708,0,0.284,30
4,1,298,"OneGo","Go","Go_OneGo",-0.483526053406195,2.47421626407626,0.362,9
4,1,0,"OneGo","NoGo","NoGo_OneGo",-0.469092439871681,0,0.328,10
4,1,331,"SevenGo","Go","Go_SevenGo",-0.454658826337168,2.51982799377572,0.326,33
4,1,377,"SevenGo","Go","Go_SevenGo",-0.440225212802655,2.57634135020579,0,34
4,1,335,"SevenGo","Go","Go_SevenGo",-0.425791599268141,2.52504480703685,0.271,35
4,1,349,"SevenGo","Go","Go_SevenGo",-0.411357985733628,2.54282542695918,0,36
4,1,330,"SevenGo","Go","Go_SevenGo",-0.396924372199115,2.51851393987789,0.336,37
4,1,336,"SevenGo","Go","Go_SevenGo",-0.382490758664602,2.52633927738984,0.294,38
4,1,430,"SevenGo","Go","Go_SevenGo",-0.368057145130088,2.63346845557959,0.379,39
4,1,0,"SevenGo","NoGo","NoGo_SevenGo",-0.353623531595575,0,0.281,40
4,1,286,"ThreeGo","Go","Go_ThreeGo",-0.339189918061062,2.45636603312904,0.263,17
4,1,316,"ThreeGo","Go","Go_ThreeGo",-0.324756304526549,2.4996870826184,0.332,18
4,1,298,"ThreeGo","Go","Go_ThreeGo",-0.310322690992035,2.47421626407626,0.426,19
4,0,288,"ThreeGo","NoGo","NoGo_ThreeGo",-0.295889077457522,2.45939248775923,0.272,20
4,1,323,"ThreeGo","Go","Go_ThreeGo",-0.281455463923009,2.5092025223311,0.388,21
4,1,305,"ThreeGo","Go","Go_ThreeGo",-0.267021850388496,2.48429983934679,0.361,22
4,1,319,"ThreeGo","Go","Go_ThreeGo",-0.252588236853982,2.50379068305718,0.295,23
4,0,301,"ThreeGo","NoGo","NoGo_ThreeGo",-0.238154623319469,2.47856649559384,0,24
4,1,327,"FiveGo","Go","Go_FiveGo",-0.223721009784956,2.51454775266029,0.544,31
4,1,341,"FiveGo","Go","Go_FiveGo",-0.209287396250442,2.5327543789925,0.446,32
4,1,331,"FiveGo","Go","Go_FiveGo",-0.194853782715929,2.51982799377572,0.272,33
4,1,337,"FiveGo","Go","Go_FiveGo",-0.180420169181416,2.52762990087134,0.422,34
4,1,390,"FiveGo","Go","Go_FiveGo",-0.165986555646903,2.5910646070265,0.565,35
4,1,0,"FiveGo","NoGo","NoGo_FiveGo",-0.151552942112389,0,0.411,36
4,1,296,"OneGo","Go","Go_OneGo",-0.137119328577876,2.47129171105894,0.344,11
4,1,0,"OneGo","NoGo","NoGo_OneGo",-0.122685715043363,0,0,12
4,1,296,"SevenGo","Go","Go_SevenGo",-0.10825210150885,2.47129171105894,0.273,41
4,1,318,"SevenGo","Go","Go_SevenGo",-0.0938184879743363,2.50242711998443,0.351,42
4,1,324,"SevenGo","Go","Go_SevenGo",-0.079384874439823,2.51054501020661,0.364,43
4,1,338,"SevenGo","Go","Go_SevenGo",-0.0649512609053097,2.52891670027765,0.29,44
4,1,311,"SevenGo","Go","Go_SevenGo",-0.0505176473707964,2.49276038902684,0.336,45
4,1,349,"SevenGo","Go","Go_SevenGo",-0.0360840338362832,2.54282542695918,0.39,46
4,1,323,"SevenGo","Go","Go_SevenGo",-0.0216504203017699,2.5092025223311,0.459,47
4,1,0,"SevenGo","NoGo","NoGo_SevenGo",-0.00721680676725664,0,0.409,48
4,1,301,"ThreeGo","Go","Go_ThreeGo",0.00721680676725664,2.47856649559384,0.301,25
4,1,394,"ThreeGo","Go","Go_ThreeGo",0.0216504203017699,2.59549622182557,0.243,26
4,1,304,"ThreeGo","Go","Go_ThreeGo",0.0360840338362832,2.48287358360875,0.432,27
4,1,0,"ThreeGo","NoGo","NoGo_ThreeGo",0.0505176473707964,0,0.326,28
4,1,281,"OneGo","Go","Go_OneGo",0.0649512609053097,2.44870631990508,0.324,13
4,0,294,"OneGo","NoGo","NoGo_OneGo",0.079384874439823,2.46834733041216,0.258,14
4,1,274,"SevenGo","Go","Go_SevenGo",0.0938184879743363,2.43775056282039,0.359,49
4,1,400,"SevenGo","Go","Go_SevenGo",0.10825210150885,2.60205999132796,0,50
4,1,382,"SevenGo","Go","Go_SevenGo",0.122685715043363,2.58206336291171,0.296,51
4,1,491,"SevenGo","Go","Go_SevenGo",0.137119328577876,2.69108149212297,0.358,52
4,1,361,"SevenGo","Go","Go_SevenGo",0.151552942112389,2.55750720190566,0.331,53
4,1,303,"SevenGo","Go","Go_SevenGo",0.165986555646903,2.4814426285023,0,54
4,1,348,"SevenGo","Go","Go_SevenGo",0.180420169181416,2.54157924394658,0.245,55
4,1,0,"SevenGo","NoGo","NoGo_SevenGo",0.194853782715929,0,0.307,56
4,1,333,"FiveGo","Go","Go_FiveGo",0.209287396250442,2.52244423350632,0.408,37
4,1,347,"FiveGo","Go","Go_FiveGo",0.223721009784956,2.54032947479087,0.318,38
4,1,337,"FiveGo","Go","Go_FiveGo",0.238154623319469,2.52762990087134,0.348,39
4,1,342,"FiveGo","Go","Go_FiveGo",0.252588236853982,2.53402610605613,0,40
4,1,349,"FiveGo","Go","Go_FiveGo",0.267021850388496,2.54282542695918,0.268,41
4,1,0,"FiveGo","NoGo","NoGo_FiveGo",0.281455463923009,0,0,42
4,1,262,"OneGo","Go","Go_OneGo",0.295889077457522,2.41830129131975,0.374,15
4,1,0,"OneGo","NoGo","NoGo_OneGo",0.310322690992035,0,0.316,16
4,1,294,"SevenGo","Go","Go_SevenGo",0.324756304526549,2.46834733041216,0.313,57
4,1,340,"SevenGo","Go","Go_SevenGo",0.339189918061062,2.53147891704225,0.351,58
4,1,322,"SevenGo","Go","Go_SevenGo",0.353623531595575,2.50785587169583,0.485,59
4,1,311,"SevenGo","Go","Go_SevenGo",0.368057145130088,2.49276038902684,0.403,60
4,1,334,"SevenGo","Go","Go_SevenGo",0.382490758664602,2.52374646681156,0.424,61
4,1,316,"SevenGo","Go","Go_SevenGo",0.396924372199115,2.4996870826184,0,62
4,1,306,"SevenGo","Go","Go_SevenGo",0.411357985733628,2.48572142648158,0.249,63
4,1,0,"SevenGo","NoGo","NoGo_SevenGo",0.425791599268141,0,0.52,64
4,1,314,"FiveGo","Go","Go_FiveGo",0.440225212802655,2.49692964807321,0.285,43
4,1,352,"FiveGo","Go","Go_FiveGo",0.454658826337168,2.54654266347813,0.259,44
4,1,462,"FiveGo","Go","Go_FiveGo",0.469092439871681,2.66464197555613,0.265,45
4,1,307,"FiveGo","Go","Go_FiveGo",0.483526053406195,2.48713837547719,0,46
4,1,345,"FiveGo","Go","Go_FiveGo",0.497959666940708,2.53781909507327,0.297,47
4,1,0,"FiveGo","NoGo","NoGo_FiveGo",0.512393280475221,0,0,48
4,1,235,"ThreeGo","Go","Go_ThreeGo",0.526826894009734,2.37106786227174,0.25,29
4,1,264,"ThreeGo","Go","Go_ThreeGo",0.541260507544248,2.42160392686983,0.576,30
4,1,302,"ThreeGo","Go","Go_ThreeGo",0.555694121078761,2.48000694295715,0.454,31
4,1,0,"ThreeGo","NoGo","NoGo_ThreeGo",0.570127734613274,0,0,32
4,1,394,"OneGo","Go","Go_OneGo",0.584561348147787,2.59549622182557,0.7,17
4,1,0,"OneGo","NoGo","NoGo_OneGo",0.598994961682301,0,0.322,18
4,1,331,"FiveGo","Go","Go_FiveGo",0.613428575216814,2.51982799377572,0.31,49
4,1,385,"FiveGo","Go","Go_FiveGo",0.627862188751327,2.5854607295085,0.292,50
4,1,335,"FiveGo","Go","Go_FiveGo",0.64229580228584,2.52504480703685,0.313,51
4,1,309,"FiveGo","Go","Go_FiveGo",0.656729415820354,2.48995847942483,0.271,52
4,1,298,"FiveGo","Go","Go_FiveGo",0.671163029354867,2.47421626407626,0.285,53
4,1,0,"FiveGo","NoGo","NoGo_FiveGo",0.68559664288938,0,0.227,54
4,1,307,"ThreeGo","Go","Go_ThreeGo",0.700030256423894,2.48713837547719,0.477,33
4,1,377,"ThreeGo","Go","Go_ThreeGo",0.714463869958407,2.57634135020579,0.307,34
4,1,318,"ThreeGo","Go","Go_ThreeGo",0.72889748349292,2.50242711998443,0.273,35
4,1,0,"ThreeGo","NoGo","NoGo_ThreeGo",0.743331097027433,0,0,36
4,1,320,"SevenGo","Go","Go_SevenGo",0.757764710561947,2.50514997831991,0.25,65
4,1,326,"SevenGo","Go","Go_SevenGo",0.77219832409646,2.51321760006794,0.32,66
4,1,299,"SevenGo","Go","Go_SevenGo",0.786631937630973,2.47567118832443,0.318,67
4,1,305,"SevenGo","Go","Go_SevenGo",0.801065551165487,2.48429983934679,0.308,68
4,1,295,"SevenGo","Go","Go_SevenGo",0.8154991647,2.46982201597816,0.281,69
4,1,277,"SevenGo","Go","Go_SevenGo",0.829932778234513,2.44247976906445,0.255,70
4,1,330,"SevenGo","Go","Go_SevenGo",0.844366391769026,2.51851393987789,0.253,71
4,1,0,"SevenGo","NoGo","NoGo_SevenGo",0.85880000530354,0,0.299,72
4,1,283,"SevenGo","Go","Go_SevenGo",0.873233618838053,2.45178643552429,0.277,73
4,1,305,"SevenGo","Go","Go_SevenGo",0.887667232372566,2.48429983934679,0.291,74
4,1,311,"SevenGo","Go","Go_SevenGo",0.902100845907079,2.49276038902684,0.329,75
4,1,301,"SevenGo","Go","Go_SevenGo",0.916534459441593,2.47856649559384,0.287,76
4,1,291,"SevenGo","Go","Go_SevenGo",0.930968072976106,2.46389298898591,0.302,77
4,1,257,"SevenGo","Go","Go_SevenGo",0.945401686510619,2.40993312333129,0.355,78
4,1,278,"SevenGo","Go","Go_SevenGo",0.959835300045133,2.44404479591808,0.321,79
4,1,0,"SevenGo","NoGo","NoGo_SevenGo",0.974268913579646,0,0,80
4,1,247,"FiveGo","Go","Go_FiveGo",0.988702527114159,2.39269695325967,0.257,55
4,1,325,"FiveGo","Go","Go_FiveGo",1.00313614064867,2.51188336097887,0,56
4,1,282,"FiveGo","Go","Go_FiveGo",1.01756975418319,2.45024910831936,0.322,57
4,1,296,"FiveGo","Go","Go_FiveGo",1.0320033677177,2.47129171105894,0.321,58
4,1,302,"FiveGo","Go","Go_FiveGo",1.04643698125221,2.48000694295715,0.302,59
4,1,0,"FiveGo","NoGo","NoGo_FiveGo",1.06087059478673,0,0,60
4,1,271,"OneGo","Go","Go_OneGo",1.07530420832124,2.43296929087441,0.295,19
4,1,0,"OneGo","NoGo","NoGo_OneGo",1.08973782185575,0,0.405,20
4,1,296,"ThreeGo","Go","Go_ThreeGo",1.10417143539027,2.47129171105894,0.298,37
4,1,294,"ThreeGo","Go","Go_ThreeGo",1.11860504892478,2.46834733041216,0.352,38
4,1,347,"ThreeGo","Go","Go_ThreeGo",1.13303866245929,2.54032947479087,0.374,39
4,1,0,"ThreeGo","NoGo","NoGo_ThreeGo",1.1474722759938,0,0,40
4,1,293,"FiveGo","Go","Go_FiveGo",1.16190588952832,2.46686762035411,0.278,61
4,1,411,"FiveGo","Go","Go_FiveGo",1.17633950306283,2.61384182187607,0.285,62
4,1,304,"FiveGo","Go","Go_FiveGo",1.19077311659734,2.48287358360875,0.459,63
4,1,286,"FiveGo","Go","Go_FiveGo",1.20520673013186,2.45636603312904,0,64
4,1,348,"FiveGo","Go","Go_FiveGo",1.21964034366637,2.54157924394658,0.283,65
4,1,0,"FiveGo","NoGo","NoGo_FiveGo",1.23407395720088,0,0.329,66
4,1,276,"OneGo","Go","Go_OneGo",1.2485075707354,2.44090908206522,0.271,21
4,1,0,"OneGo","NoGo","NoGo_OneGo",1.26294118426991,0,0.405,22
4,1,294,"ThreeGo","Go","Go_ThreeGo",1.27737479780442,2.46834733041216,0.322,41
4,1,308,"ThreeGo","Go","Go_ThreeGo",1.29180841133894,2.48855071650044,0,42
4,1,297,"ThreeGo","Go","Go_ThreeGo",1.30624202487345,2.47275644931721,0.284,43
4,1,0,"ThreeGo","NoGo","NoGo_ThreeGo",1.32067563840796,0,0,44
4,1,354,"SevenGo","Go","Go_SevenGo",1.33510925194248,2.54900326202579,0.404,81
4,1,320,"SevenGo","Go","Go_SevenGo",1.34954286547699,2.50514997831991,0.306,82
4,1,373,"SevenGo","Go","Go_SevenGo",1.3639764790115,2.57170883180869,0.352,83
4,1,307,"SevenGo","Go","Go_SevenGo",1.37841009254602,2.48713837547719,0.27,84
4,1,321,"SevenGo","Go","Go_SevenGo",1.39284370608053,2.50650503240487,0.315,85
4,1,327,"SevenGo","Go","Go_SevenGo",1.40727731961504,2.51454775266029,0.337,86
4,1,284,"SevenGo","Go","Go_SevenGo",1.42171093314956,2.45331834004704,0.287,87
4,1,0,"SevenGo","NoGo","NoGo_SevenGo",1.43614454668407,0,0,88
4,1,294,"FiveGo","Go","Go_FiveGo",1.45057816021858,2.46834733041216,0.312,67
4,1,284,"FiveGo","Go","Go_FiveGo",1.4650117737531,2.45331834004704,0.334,68
4,1,241,"FiveGo","Go","Go_FiveGo",1.47944538728761,2.38201704257487,0.324,69
4,1,287,"FiveGo","Go","Go_FiveGo",1.49387900082212,2.45788189673399,0.458,70
4,1,309,"FiveGo","Go","Go_FiveGo",1.50831261435664,2.48995847942483,0.303,71
4,1,0,"FiveGo","NoGo","NoGo_FiveGo",1.52274622789115,0,0,72
4,1,245,"ThreeGo","Go","Go_ThreeGo",1.53717984142566,2.38916608436453,0.224,45
4,1,251,"ThreeGo","Go","Go_ThreeGo",1.55161345496018,2.39967372148104,0.254,46
4,1,297,"ThreeGo","Go","Go_ThreeGo",1.56604706849469,2.47275644931721,0.211,47
4,1,0,"ThreeGo","NoGo","NoGo_ThreeGo",1.5804806820292,0,0.417,48
4,1,218,"SevenGo","Go","Go_SevenGo",1.59491429556372,2.3384564936046,0.351,89
4,1,280,"SevenGo","Go","Go_SevenGo",1.60934790909823,2.44715803134222,0.253,90
4,1,350,"SevenGo","Go","Go_SevenGo",1.62378152263274,2.54406804435028,0.354,91
4,1,316,"SevenGo","Go","Go_SevenGo",1.63821513616726,2.4996870826184,0.408,92
4,1,281,"SevenGo","Go","Go_SevenGo",1.65264874970177,2.44870631990508,0.3,93
4,1,271,"SevenGo","Go","Go_SevenGo",1.66708236323628,2.43296929087441,0.242,94
4,1,293,"SevenGo","Go","Go_SevenGo",1.6815159767708,2.46686762035411,0.279,95
4,1,0,"SevenGo","NoGo","NoGo_SevenGo",1.69594959030531,0,0,96
4,1,277,"OneGo","Go","Go_OneGo",1.71038320383982,2.44247976906445,0.296,23
4,1,0,"OneGo","NoGo","NoGo_OneGo",1.72481681737434,0,0.302,24
5,1,322,"ThreeGo","Go","Go_ThreeGo",-1.72481681737434,2.50785587169583,0.412,1
5,1,360,"ThreeGo","Go","Go_ThreeGo",-1.71038320383982,2.55630250076729,0.354,2
5,1,325,"ThreeGo","Go","Go_ThreeGo",-1.69594959030531,2.51188336097887,0.352,3
5,1,0,"ThreeGo","NoGo","NoGo_ThreeGo",-1.6815159767708,0,0.326,4
5,1,311,"FiveGo","Go","Go_FiveGo",-1.66708236323628,2.49276038902684,0.363,1
5,1,365,"FiveGo","Go","Go_FiveGo",-1.65264874970177,2.56229286445647,0.345,2
5,1,330,"FiveGo","Go","Go_FiveGo",-1.63821513616726,2.51851393987789,0.383,3
5,1,232,"FiveGo","Go","Go_FiveGo",-1.62378152263274,2.3654879848909,0,4
5,1,334,"FiveGo","Go","Go_FiveGo",-1.60934790909823,2.52374646681156,0.327,5
5,1,0,"FiveGo","NoGo","NoGo_FiveGo",-1.59491429556372,0,0,6
5,1,326,"SevenGo","Go","Go_SevenGo",-1.5804806820292,2.51321760006794,0.377,1
5,1,285,"SevenGo","Go","Go_SevenGo",-1.56604706849469,2.45484486000851,0.447,2
5,1,235,"SevenGo","Go","Go_SevenGo",-1.55161345496018,2.37106786227174,0.331,3
5,1,345,"SevenGo","Go","Go_SevenGo",-1.53717984142566,2.53781909507327,0.322,4
5,1,294,"SevenGo","Go","Go_SevenGo",-1.52274622789115,2.46834733041216,0.341,5
5,1,292,"SevenGo","Go","Go_SevenGo",-1.50831261435664,2.46538285144842,0.363,6
5,1,434,"SevenGo","Go","Go_SevenGo",-1.49387900082212,2.63748972951251,0.337,7
5,0,312,"SevenGo","NoGo","NoGo_SevenGo",-1.47944538728761,2.49415459401844,0.382,8
5,1,314,"OneGo","Go","Go_OneGo",-1.4650117737531,2.49692964807321,0.348,1
5,1,0,"OneGo","NoGo","NoGo_OneGo",-1.45057816021858,0,0.306,2
5,1,268,"ThreeGo","Go","Go_ThreeGo",-1.43614454668407,2.42813479402879,0.366,5
5,1,330,"ThreeGo","Go","Go_ThreeGo",-1.42171093314956,2.51851393987789,0.379,6
5,1,311,"ThreeGo","Go","Go_ThreeGo",-1.40727731961504,2.49276038902684,0.313,7
5,1,0,"ThreeGo","NoGo","NoGo_ThreeGo",-1.39284370608053,0,0,8
5,1,368,"SevenGo","Go","Go_SevenGo",-1.37841009254602,2.56584781867352,0.346,9
5,1,398,"SevenGo","Go","Go_SevenGo",-1.3639764790115,2.59988307207369,0.367,10
5,1,355,"SevenGo","Go","Go_SevenGo",-1.34954286547699,2.55022835305509,0.349,11
5,1,353,"SevenGo","Go","Go_SevenGo",-1.33510925194248,2.54777470538782,0.347,12
5,1,311,"SevenGo","Go","Go_SevenGo",-1.32067563840796,2.49276038902684,0.345,13
5,1,317,"SevenGo","Go","Go_SevenGo",-1.30624202487345,2.50105926221775,0.326,14
5,1,306,"SevenGo","Go","Go_SevenGo",-1.29180841133894,2.48572142648158,0.396,15
5,1,0,"SevenGo","NoGo","NoGo_SevenGo",-1.27737479780442,0,0,16
5,1,284,"OneGo","Go","Go_OneGo",-1.26294118426991,2.45331834004704,0.358,3
5,1,0,"OneGo","NoGo","NoGo_OneGo",-1.2485075707354,0,0,4
5,1,364,"FiveGo","Go","Go_FiveGo",-1.23407395720088,2.56110138364906,0.39,7
5,1,354,"FiveGo","Go","Go_FiveGo",-1.21964034366637,2.54900326202579,0.38,8
5,1,496,"FiveGo","Go","Go_FiveGo",-1.20520673013186,2.6954816764902,0.346,9
5,1,494,"FiveGo","Go","Go_FiveGo",-1.19077311659734,2.69372694892365,0.351,10
5,1,387,"FiveGo","Go","Go_FiveGo",-1.17633950306283,2.58771096501891,0.333,11
5,1,0,"FiveGo","NoGo","NoGo_FiveGo",-1.16190588952832,0,0,12
5,1,469,"OneGo","Go","Go_OneGo",-1.1474722759938,2.67117284271508,0.326,5
5,1,0,"OneGo","NoGo","NoGo_OneGo",-1.13303866245929,0,0.34,6
5,1,333,"ThreeGo","Go","Go_ThreeGo",-1.11860504892478,2.52244423350632,0.362,9
5,1,331,"ThreeGo","Go","Go_ThreeGo",-1.10417143539027,2.51982799377572,0.384,10
5,1,361,"ThreeGo","Go","Go_ThreeGo",-1.08973782185575,2.55750720190566,0.31,11
5,1,0,"ThreeGo","NoGo","NoGo_ThreeGo",-1.07530420832124,0,0.323,12
5,1,369,"FiveGo","Go","Go_FiveGo",-1.06087059478673,2.56702636615906,0.265,13
5,1,368,"FiveGo","Go","Go_FiveGo",-1.04643698125221,2.56584781867352,0,14
5,1,350,"FiveGo","Go","Go_FiveGo",-1.0320033677177,2.54406804435028,0.394,15
5,1,380,"FiveGo","Go","Go_FiveGo",-1.01756975418319,2.57978359661681,0.367,16
5,1,0,"FiveGo","NoGo","NoGo_FiveGo",-0.988702527114159,0,0.347,18
5,1,442,"SevenGo","Go","Go_SevenGo",-0.974268913579646,2.64542226934909,0.37,17
5,1,368,"SevenGo","Go","Go_SevenGo",-0.959835300045133,2.56584781867352,0,18
5,1,365,"SevenGo","Go","Go_SevenGo",-0.945401686510619,2.56229286445647,0.314,19
5,1,323,"SevenGo","Go","Go_SevenGo",-0.930968072976106,2.5092025223311,0,20
5,1,353,"SevenGo","Go","Go_SevenGo",-0.916534459441593,2.54777470538782,0.315,21
5,1,359,"SevenGo","Go","Go_SevenGo",-0.902100845907079,2.55509444857832,0.368,22
5,1,316,"SevenGo","Go","Go_SevenGo",-0.887667232372566,2.4996870826184,0.318,23
5,1,0,"SevenGo","NoGo","NoGo_SevenGo",-0.873233618838053,0,0,24
5,1,374,"OneGo","Go","Go_OneGo",-0.85880000530354,2.57287160220048,0.32,7
5,1,0,"OneGo","NoGo","NoGo_OneGo",-0.844366391769026,0,0.333,8
5,1,294,"FiveGo","Go","Go_FiveGo",-0.829932778234513,2.46834733041216,0.283,19
5,1,300,"FiveGo","Go","Go_FiveGo",-0.8154991647,2.47712125471966,0,20
5,1,314,"FiveGo","Go","Go_FiveGo",-0.801065551165487,2.49692964807321,0.34,21
5,1,304,"FiveGo","Go","Go_FiveGo",-0.786631937630973,2.48287358360875,0,22
5,1,357,"FiveGo","Go","Go_FiveGo",-0.77219832409646,2.55266821611219,0.309,23
5,1,0,"FiveGo","NoGo","NoGo_FiveGo",-0.757764710561947,0,0.363,24
5,1,327,"SevenGo","Go","Go_SevenGo",-0.743331097027433,2.51454775266029,0.353,25
5,1,237,"SevenGo","Go","Go_SevenGo",-0.72889748349292,2.3747483460101,0.342,26
5,1,283,"SevenGo","Go","Go_SevenGo",-0.714463869958407,2.45178643552429,0.34,27
5,1,288,"SevenGo","Go","Go_SevenGo",-0.700030256423894,2.45939248775923,0.41,28
5,1,326,"SevenGo","Go","Go_SevenGo",-0.68559664288938,2.51321760006794,0.288,29
5,1,332,"SevenGo","Go","Go_SevenGo",-0.671163029354867,2.52113808370404,0,30
5,1,337,"SevenGo","Go","Go_SevenGo",-0.656729415820354,2.52762990087134,0.288,31
5,1,0,"SevenGo","NoGo","NoGo_SevenGo",-0.64229580228584,0,0.318,32
5,1,290,"ThreeGo","Go","Go_ThreeGo",-0.627862188751327,2.46239799789896,0.324,13
5,1,248,"ThreeGo","Go","Go_ThreeGo",-0.613428575216814,2.39445168082622,0.377,14
5,1,325,"ThreeGo","Go","Go_ThreeGo",-0.598994961682301,2.51188336097887,0.367,15
5,1,0,"ThreeGo","NoGo","NoGo_ThreeGo",-0.584561348147787,0,0,16
5,1,346,"SevenGo","Go","Go_SevenGo",-0.570127734613274,2.53907609879278,0.354,33
5,1,320,"SevenGo","Go","Go_SevenGo",-0.555694121078761,2.50514997831991,0.312,34
5,1,261,"SevenGo","Go","Go_SevenGo",-0.541260507544248,2.41664050733828,0.318,35
5,1,347,"SevenGo","Go","Go_SevenGo",-0.526826894009734,2.54032947479087,0.324,36
5,1,265,"SevenGo","Go","Go_SevenGo",-0.512393280475221,2.42324587393681,0.353,37
5,1,263,"SevenGo","Go","Go_SevenGo",-0.497959666940708,2.41995574848976,0,38
5,1,276,"SevenGo","Go","Go_SevenGo",-0.483526053406195,2.44090908206522,0.298,39
5,1,0,"SevenGo","NoGo","NoGo_SevenGo",-0.469092439871681,0,0,40
5,1,253,"FiveGo","Go","Go_FiveGo",-0.454658826337168,2.40312052117582,0.331,25
5,1,267,"FiveGo","Go","Go_FiveGo",-0.440225212802655,2.42651126136458,0.377,26
5,1,337,"FiveGo","Go","Go_FiveGo",-0.425791599268141,2.52762990087134,0.335,27
5,1,303,"FiveGo","Go","Go_FiveGo",-0.411357985733628,2.4814426285023,0.349,28
5,1,293,"FiveGo","Go","Go_FiveGo",-0.396924372199115,2.46686762035411,0.33,29
5,1,0,"FiveGo","NoGo","NoGo_FiveGo",-0.382490758664602,0,0.336,30
5,1,277,"OneGo","Go","Go_OneGo",-0.368057145130088,2.44247976906445,0.43,9
5,0,219,"OneGo","NoGo","NoGo_OneGo",-0.353623531595575,2.34044411484012,0,10
5,1,302,"ThreeGo","Go","Go_ThreeGo",-0.339189918061062,2.48000694295715,0.286,17
5,1,284,"ThreeGo","Go","Go_ThreeGo",-0.324756304526549,2.45331834004704,0.316,18
5,1,330,"ThreeGo","Go","Go_ThreeGo",-0.310322690992035,2.51851393987789,0.298,19
5,1,0,"ThreeGo","NoGo","NoGo_ThreeGo",-0.295889077457522,0,0.288,20
5,1,299,"FiveGo","Go","Go_FiveGo",-0.281455463923009,2.47567118832443,0.323,31
5,1,329,"FiveGo","Go","Go_FiveGo",-0.267021850388496,2.51719589794997,0.305,32
5,1,310,"FiveGo","Go","Go_FiveGo",-0.252588236853982,2.49136169383427,0.319,33
5,1,292,"FiveGo","Go","Go_FiveGo",-0.238154623319469,2.46538285144842,0.301,34
5,1,306,"FiveGo","Go","Go_FiveGo",-0.223721009784956,2.48572142648158,0.327,35
5,1,0,"FiveGo","NoGo","NoGo_FiveGo",-0.209287396250442,0,0.341,36
5,1,299,"SevenGo","Go","Go_SevenGo",-0.194853782715929,2.47567118832443,0.331,41
5,1,289,"SevenGo","Go","Go_SevenGo",-0.180420169181416,2.46089784275655,0.337,42
5,1,303,"SevenGo","Go","Go_SevenGo",-0.165986555646903,2.4814426285023,0.39,43
5,1,285,"SevenGo","Go","Go_SevenGo",-0.151552942112389,2.45484486000851,0,44
5,1,290,"SevenGo","Go","Go_SevenGo",-0.137119328577876,2.46239799789896,0.296,45
5,1,368,"SevenGo","Go","Go_SevenGo",-0.122685715043363,2.56584781867352,0,46
5,1,350,"SevenGo","Go","Go_SevenGo",-0.10825210150885,2.54406804435028,0.296,47
5,1,0,"SevenGo","NoGo","NoGo_SevenGo",-0.0938184879743363,0,0.318,48
5,1,302,"OneGo","Go","Go_OneGo",-0.079384874439823,2.48000694295715,0.324,11
5,1,0,"OneGo","NoGo","NoGo_OneGo",-0.0649512609053097,0,0.338,12
5,1,216,"ThreeGo","Go","Go_ThreeGo",-0.0505176473707964,2.33445375115093,0.311,21
5,1,267,"ThreeGo","Go","Go_ThreeGo",-0.0216504203017699,2.42651126136458,0.323,23
5,1,0,"ThreeGo","NoGo","NoGo_ThreeGo",-0.00721680676725664,0,0,24
5,1,244,"FiveGo","Go","Go_FiveGo",0.00721680676725664,2.38738982633873,0.301,37
5,1,226,"FiveGo","Go","Go_FiveGo",0.0216504203017699,2.3541084391474,0.394,38
5,1,247,"FiveGo","Go","Go_FiveGo",0.0360840338362832,2.39269695325967,0.304,39
5,1,285,"FiveGo","Go","Go_FiveGo",0.0505176473707964,2.45484486000851,0,40
5,1,291,"FiveGo","Go","Go_FiveGo",0.0649512609053097,2.46389298898591,0.281,41
5,0,265,"FiveGo","NoGo","NoGo_FiveGo",0.079384874439823,2.42324587393681,0.294,42
5,1,388,"ThreeGo","Go","Go_ThreeGo",0.0938184879743363,2.58883172559421,0.274,25
5,1,370,"ThreeGo","Go","Go_ThreeGo",0.10825210150885,2.56820172406699,0.4,26
5,1,528,"ThreeGo","Go","Go_ThreeGo",0.122685715043363,2.72263392253381,0.382,27
5,1,0,"ThreeGo","NoGo","NoGo_ThreeGo",0.137119328577876,0,0.491,28
5,1,480,"OneGo","Go","Go_OneGo",0.151552942112389,2.68124123737559,0.361,13
5,1,0,"OneGo","NoGo","NoGo_OneGo",0.165986555646903,0,0.303,14
5,1,329,"SevenGo","Go","Go_SevenGo",0.180420169181416,2.51719589794997,0.348,49
5,1,424,"SevenGo","Go","Go_SevenGo",0.194853782715929,2.62736585659273,0,50
5,1,381,"SevenGo","Go","Go_SevenGo",0.209287396250442,2.58092497567562,0.333,51
5,1,419,"SevenGo","Go","Go_SevenGo",0.223721009784956,2.6222140229663,0.347,52
5,1,359,"SevenGo","Go","Go_SevenGo",0.252588236853982,2.55509444857832,0.342,54
5,1,380,"SevenGo","Go","Go_SevenGo",0.267021850388496,2.57978359661681,0.349,55
5,1,0,"SevenGo","NoGo","NoGo_SevenGo",0.281455463923009,0,0,56
5,1,357,"FiveGo","Go","Go_FiveGo",0.295889077457522,2.55266821611219,0.262,43
5,1,339,"FiveGo","Go","Go_FiveGo",0.310322690992035,2.53019969820308,0,44
5,1,464,"FiveGo","Go","Go_FiveGo",0.324756304526549,2.66651798055488,0.294,45
5,1,350,"FiveGo","Go","Go_FiveGo",0.339189918061062,2.54406804435028,0.34,46
5,1,428,"FiveGo","Go","Go_FiveGo",0.353623531595575,2.63144376901317,0.322,47
5,1,0,"FiveGo","NoGo","NoGo_FiveGo",0.368057145130088,0,0.311,48
5,1,269,"ThreeGo","Go","Go_ThreeGo",0.382490758664602,2.42975228000241,0.334,29
5,1,579,"ThreeGo","Go","Go_ThreeGo",0.396924372199115,2.76267856372744,0.316,30
5,1,345,"ThreeGo","Go","Go_ThreeGo",0.411357985733628,2.53781909507327,0.306,31
5,1,0,"ThreeGo","NoGo","NoGo_ThreeGo",0.425791599268141,0,0,32
5,1,305,"OneGo","Go","Go_OneGo",0.440225212802655,2.48429983934679,0.314,15
5,1,0,"OneGo","NoGo","NoGo_OneGo",0.454658826337168,0,0.352,16
5,1,315,"SevenGo","Go","Go_SevenGo",0.469092439871681,2.4983105537896,0.462,57
5,1,321,"SevenGo","Go","Go_SevenGo",0.483526053406195,2.50650503240487,0.307,58
5,1,311,"SevenGo","Go","Go_SevenGo",0.497959666940708,2.49276038902684,0.345,59
5,1,388,"SevenGo","Go","Go_SevenGo",0.512393280475221,2.58883172559421,0,60
5,1,330,"SevenGo","Go","Go_SevenGo",0.526826894009734,2.51851393987789,0.235,61
5,1,576,"SevenGo","Go","Go_SevenGo",0.541260507544248,2.76042248342321,0.264,62
5,1,341,"SevenGo","Go","Go_SevenGo",0.555694121078761,2.5327543789925,0.302,63
5,1,0,"SevenGo","NoGo","NoGo_SevenGo",0.570127734613274,0,0,64
5,1,393,"FiveGo","Go","Go_FiveGo",0.584561348147787,2.59439255037543,0.394,49
5,1,312,"FiveGo","Go","Go_FiveGo",0.598994961682301,2.49415459401844,0,50
5,1,301,"FiveGo","Go","Go_FiveGo",0.613428575216814,2.47856649559384,0.331,51
5,1,307,"FiveGo","Go","Go_FiveGo",0.627862188751327,2.48713837547719,0.385,52
5,1,297,"FiveGo","Go","Go_FiveGo",0.64229580228584,2.47275644931721,0.335,53
5,1,0,"FiveGo","NoGo","NoGo_FiveGo",0.656729415820354,0,0.309,54
5,1,305,"SevenGo","Go","Go_SevenGo",0.671163029354867,2.48429983934679,0.298,65
5,1,255,"SevenGo","Go","Go_SevenGo",0.68559664288938,2.40654018043396,0,66
5,1,349,"SevenGo","Go","Go_SevenGo",0.700030256423894,2.54282542695918,0.307,67
5,1,443,"SevenGo","Go","Go_SevenGo",0.714463869958407,2.64640372622307,0.377,68
5,1,392,"SevenGo","Go","Go_SevenGo",0.72889748349292,2.59328606702046,0.318,69
5,1,502,"SevenGo","Go","Go_SevenGo",0.743331097027433,2.70070371714502,0,70
5,1,348,"SevenGo","Go","Go_SevenGo",0.757764710561947,2.54157924394658,0.32,71
5,1,0,"SevenGo","NoGo","NoGo_SevenGo",0.77219832409646,0,0.326,72
5,1,341,"ThreeGo","Go","Go_ThreeGo",0.786631937630973,2.5327543789925,0.299,33
5,1,395,"ThreeGo","Go","Go_ThreeGo",0.801065551165487,2.59659709562646,0.305,34
5,1,377,"ThreeGo","Go","Go_ThreeGo",0.8154991647,2.57634135020579,0.295,35
5,1,0,"ThreeGo","NoGo","NoGo_ThreeGo",0.829932778234513,0,0.277,36
5,1,393,"OneGo","Go","Go_OneGo",0.844366391769026,2.59439255037543,0.33,17
5,1,0,"OneGo","NoGo","NoGo_OneGo",0.85880000530354,0,0,18
5,1,299,"OneGo","Go","Go_OneGo",0.873233618838053,2.47567118832443,0.283,19
5,1,0,"OneGo","NoGo","NoGo_OneGo",0.887667232372566,0,0.305,20
5,1,291,"FiveGo","Go","Go_FiveGo",0.902100845907079,2.46389298898591,0.311,55
5,1,353,"FiveGo","Go","Go_FiveGo",0.916534459441593,2.54777470538782,0.301,56
5,1,343,"FiveGo","Go","Go_FiveGo",0.930968072976106,2.53529412004277,0.291,57
5,1,317,"FiveGo","Go","Go_FiveGo",0.945401686510619,2.50105926221775,0.257,58
5,1,314,"FiveGo","Go","Go_FiveGo",0.959835300045133,2.49692964807321,0.278,59
5,1,0,"FiveGo","NoGo","NoGo_FiveGo",0.974268913579646,0,0,60
5,1,315,"ThreeGo","Go","Go_ThreeGo",0.988702527114159,2.4983105537896,0.247,37
5,1,370,"ThreeGo","Go","Go_ThreeGo",1.00313614064867,2.56820172406699,0.325,38
5,1,343,"ThreeGo","Go","Go_ThreeGo",1.01756975418319,2.53529412004277,0.282,39
5,1,0,"ThreeGo","NoGo","NoGo_ThreeGo",1.0320033677177,0,0.296,40
5,1,312,"SevenGo","Go","Go_SevenGo",1.04643698125221,2.49415459401844,0.302,73
5,1,334,"SevenGo","Go","Go_SevenGo",1.06087059478673,2.52374646681156,0,74
5,1,331,"SevenGo","Go","Go_SevenGo",1.07530420832124,2.51982799377572,0.271,75
5,1,265,"SevenGo","Go","Go_SevenGo",1.08973782185575,2.42324587393681,0,76
5,1,319,"SevenGo","Go","Go_SevenGo",1.10417143539027,2.50379068305718,0.296,77
5,1,333,"SevenGo","Go","Go_SevenGo",1.11860504892478,2.52244423350632,0.294,78
5,1,354,"SevenGo","Go","Go_SevenGo",1.13303866245929,2.54900326202579,0.347,79
5,1,0,"SevenGo","NoGo","NoGo_SevenGo",1.1474722759938,0,0,80
5,1,364,"SevenGo","Go","Go_SevenGo",1.16190588952832,2.56110138364906,0.293,81
5,1,386,"SevenGo","Go","Go_SevenGo",1.17633950306283,2.58658730467176,0.411,82
5,1,383,"SevenGo","Go","Go_SevenGo",1.19077311659734,2.58319877396862,0.304,83
5,1,349,"SevenGo","Go","Go_SevenGo",1.20520673013186,2.54282542695918,0.286,84
5,1,403,"SevenGo","Go","Go_SevenGo",1.21964034366637,2.60530504614111,0.348,85
5,1,353,"SevenGo","Go","Go_SevenGo",1.23407395720088,2.54777470538782,0,86
5,1,334,"SevenGo","Go","Go_SevenGo",1.2485075707354,2.52374646681156,0.276,87
5,1,0,"SevenGo","NoGo","NoGo_SevenGo",1.26294118426991,0,0,88
5,1,271,"ThreeGo","Go","Go_ThreeGo",1.27737479780442,2.43296929087441,0.294,41
5,1,341,"ThreeGo","Go","Go_ThreeGo",1.29180841133894,2.5327543789925,0.308,42
5,1,346,"ThreeGo","Go","Go_ThreeGo",1.30624202487345,2.53907609879278,0.297,43
5,1,0,"ThreeGo","NoGo","NoGo_ThreeGo",1.32067563840796,0,0,44
5,1,444,"OneGo","Go","Go_OneGo",1.33510925194248,2.64738297011462,0.354,21
5,1,0,"OneGo","NoGo","NoGo_OneGo",1.34954286547699,0,0.32,22
5,1,308,"FiveGo","Go","Go_FiveGo",1.3639764790115,2.48855071650044,0.373,61
5,1,290,"FiveGo","Go","Go_FiveGo",1.37841009254602,2.46239799789896,0.307,62
5,1,336,"FiveGo","Go","Go_FiveGo",1.39284370608053,2.52633927738984,0.321,63
5,1,358,"FiveGo","Go","Go_FiveGo",1.40727731961504,2.55388302664387,0.327,64
5,1,363,"FiveGo","Go","Go_FiveGo",1.42171093314956,2.55990662503611,0.284,65
5,1,0,"FiveGo","NoGo","NoGo_FiveGo",1.43614454668407,0,0,66
5,1,429,"FiveGo","Go","Go_FiveGo",1.45057816021858,2.63245729218472,0.294,67
5,1,411,"FiveGo","Go","Go_FiveGo",1.4650117737531,2.61384182187607,0.284,68
5,1,320,"FiveGo","Go","Go_FiveGo",1.47944538728761,2.50514997831991,0.241,69
5,1,350,"FiveGo","Go","Go_FiveGo",1.49387900082212,2.54406804435028,0.287,70
5,1,468,"FiveGo","Go","Go_FiveGo",1.50831261435664,2.67024585307412,0.309,71
5,1,0,"FiveGo","NoGo","NoGo_FiveGo",1.52274622789115,0,0,72
5,1,348,"OneGo","Go","Go_OneGo",1.53717984142566,2.54157924394658,0.245,23
5,1,0,"OneGo","NoGo","NoGo_OneGo",1.55161345496018,0,0.251,24
5,1,302,"SevenGo","Go","Go_SevenGo",1.56604706849469,2.48000694295715,0.297,89
5,1,324,"SevenGo","Go","Go_SevenGo",1.5804806820292,2.51054501020661,0,90
5,1,329,"SevenGo","Go","Go_SevenGo",1.59491429556372,2.51719589794997,0.218,91
5,1,383,"SevenGo","Go","Go_SevenGo",1.60934790909823,2.58319877396862,0.28,92
5,1,349,"SevenGo","Go","Go_SevenGo",1.62378152263274,2.54282542695918,0.35,93
5,1,379,"SevenGo","Go","Go_SevenGo",1.63821513616726,2.57863920996807,0.316,94
5,1,424,"SevenGo","Go","Go_SevenGo",1.65264874970177,2.62736585659273,0.281,95
5,1,0,"SevenGo","NoGo","NoGo_SevenGo",1.66708236323628,0,0.271,96
5,1,305,"ThreeGo","Go","Go_ThreeGo",1.6815159767708,2.48429983934679,0.293,45
5,1,327,"ThreeGo","Go","Go_ThreeGo",1.69594959030531,2.51454775266029,0,46
5,1,317,"ThreeGo","Go","Go_ThreeGo",1.71038320383982,2.50105926221775,0.277,47
5,1,0,"ThreeGo","NoGo","NoGo_ThreeGo",1.72481681737434,0,0,48
6,1,286,"ThreeGo","Go","Go_ThreeGo",-1.72481681737434,2.45636603312904,0.322,1
6,1,370,"ThreeGo","Go","Go_ThreeGo",-1.71038320383982,2.56820172406699,0.36,2
6,1,308,"ThreeGo","Go","Go_ThreeGo",-1.69594959030531,2.48855071650044,0.325,3
6,1,0,"ThreeGo","NoGo","NoGo_ThreeGo",-1.6815159767708,0,0,4
6,1,403,"FiveGo","Go","Go_FiveGo",-1.66708236323628,2.60530504614111,0.311,1
6,1,238,"FiveGo","Go","Go_FiveGo",-1.65264874970177,2.37657695705651,0.365,2
6,1,305,"FiveGo","Go","Go_FiveGo",-1.63821513616726,2.48429983934679,0.33,3
6,1,292,"FiveGo","Go","Go_FiveGo",-1.62378152263274,2.46538285144842,0.232,4
6,1,271,"FiveGo","Go","Go_FiveGo",-1.60934790909823,2.43296929087441,0.334,5
6,0,267,"FiveGo","NoGo","NoGo_FiveGo",-1.59491429556372,2.42651126136458,0,6
6,1,293,"SevenGo","Go","Go_SevenGo",-1.5804806820292,2.46686762035411,0.326,1
6,1,441,"SevenGo","Go","Go_SevenGo",-1.56604706849469,2.64443858946784,0.285,2
6,1,380,"SevenGo","Go","Go_SevenGo",-1.55161345496018,2.57978359661681,0.235,3
6,1,287,"SevenGo","Go","Go_SevenGo",-1.53717984142566,2.45788189673399,0.345,4
6,1,322,"SevenGo","Go","Go_SevenGo",-1.52274622789115,2.50785587169583,0.294,5
6,1,301,"SevenGo","Go","Go_SevenGo",-1.50831261435664,2.47856649559384,0.292,6
6,1,312,"SevenGo","Go","Go_SevenGo",-1.49387900082212,2.49415459401844,0.434,7
6,1,0,"SevenGo","NoGo","NoGo_SevenGo",-1.47944538728761,0,0.312,8
6,1,294,"OneGo","Go","Go_OneGo",-1.4650117737531,2.46834733041216,0.314,1
6,1,0,"OneGo","NoGo","NoGo_OneGo",-1.45057816021858,0,0,2
6,1,301,"ThreeGo","Go","Go_ThreeGo",-1.43614454668407,2.47856649559384,0.268,5
6,1,360,"ThreeGo","Go","Go_ThreeGo",-1.42171093314956,2.55630250076729,0.33,6
6,1,475,"ThreeGo","Go","Go_ThreeGo",-1.40727731961504,2.67669360962487,0.311,7
6,1,0,"ThreeGo","NoGo","NoGo_ThreeGo",-1.39284370608053,0,0,8
6,1,297,"SevenGo","Go","Go_SevenGo",-1.37841009254602,2.47275644931721,0.368,9
6,1,557,"SevenGo","Go","Go_SevenGo",-1.3639764790115,2.74585519517373,0.398,10
6,1,336,"SevenGo","Go","Go_SevenGo",-1.34954286547699,2.52633927738984,0.355,11
6,1,466,"SevenGo","Go","Go_SevenGo",-1.33510925194248,2.66838591669,0.353,12
6,1,366,"SevenGo","Go","Go_SevenGo",-1.32067563840796,2.56348108539441,0.311,13
6,1,257,"SevenGo","Go","Go_SevenGo",-1.30624202487345,2.40993312333129,0.317,14
6,1,276,"SevenGo","Go","Go_SevenGo",-1.29180841133894,2.44090908206522,0.306,15
6,1,0,"SevenGo","NoGo","NoGo_SevenGo",-1.27737479780442,0,0,16
6,1,298,"FiveGo","Go","Go_FiveGo",-1.26294118426991,2.47421626407626,0.284,7
6,1,334,"FiveGo","Go","Go_FiveGo",-1.2485075707354,2.52374646681156,0,8
6,1,305,"FiveGo","Go","Go_FiveGo",-1.23407395720088,2.48429983934679,0.364,9
6,1,291,"FiveGo","Go","Go_FiveGo",-1.21964034366637,2.46389298898591,0.354,10
6,1,359,"FiveGo","Go","Go_FiveGo",-1.20520673013186,2.55509444857832,0.496,11
6,1,0,"FiveGo","NoGo","NoGo_FiveGo",-1.19077311659734,0,0.494,12
6,1,268,"OneGo","Go","Go_OneGo",-1.17633950306283,2.42813479402879,0.387,3
6,1,0,"OneGo","NoGo","NoGo_OneGo",-1.16190588952832,0,0,4
6,1,307,"FiveGo","Go","Go_FiveGo",-1.1474722759938,2.48713837547719,0.469,13
6,1,295,"FiveGo","Go","Go_FiveGo",-1.13303866245929,2.46982201597816,0,14
6,1,353,"FiveGo","Go","Go_FiveGo",-1.11860504892478,2.54777470538782,0.333,15
6,1,428,"FiveGo","Go","Go_FiveGo",-1.10417143539027,2.63144376901317,0.331,16
6,1,288,"FiveGo","Go","Go_FiveGo",-1.08973782185575,2.45939248775923,0.361,17
6,1,0,"FiveGo","NoGo","NoGo_FiveGo",-1.07530420832124,0,0,18
6,1,310,"ThreeGo","Go","Go_ThreeGo",-1.06087059478673,2.49136169383427,0.369,9
6,1,313,"ThreeGo","Go","Go_ThreeGo",-1.04643698125221,2.49554433754645,0.368,10
6,1,292,"ThreeGo","Go","Go_ThreeGo",-1.0320033677177,2.46538285144842,0.35,11
6,1,0,"ThreeGo","NoGo","NoGo_ThreeGo",-1.01756975418319,0,0.38,12
6,1,347,"SevenGo","Go","Go_SevenGo",-1.00313614064867,2.54032947479087,0.585,17
6,1,277,"SevenGo","Go","Go_SevenGo",-0.988702527114159,2.44247976906445,0,18
6,1,353,"SevenGo","Go","Go_SevenGo",-0.974268913579646,2.54777470538782,0.442,19
6,1,268,"SevenGo","Go","Go_SevenGo",-0.959835300045133,2.42813479402879,0.368,20
6,1,343,"SevenGo","Go","Go_SevenGo",-0.945401686510619,2.53529412004277,0.365,21
6,1,418,"SevenGo","Go","Go_SevenGo",-0.930968072976106,2.62117628177504,0.323,22
6,1,317,"SevenGo","Go","Go_SevenGo",-0.916534459441593,2.50105926221775,0.353,23
6,1,0,"SevenGo","NoGo","NoGo_SevenGo",-0.902100845907079,0,0.359,24
6,1,308,"OneGo","Go","Go_OneGo",-0.887667232372566,2.48855071650044,0.316,5
6,1,0,"OneGo","NoGo","NoGo_OneGo",-0.873233618838053,0,0,6
6,1,298,"OneGo","Go","Go_OneGo",-0.85880000530354,2.47421626407626,0.374,7
6,1,0,"OneGo","NoGo","NoGo_OneGo",-0.844366391769026,0,0,8
6,1,272,"FiveGo","Go","Go_FiveGo",-0.829932778234513,2.4345689040342,0.294,19
6,1,355,"FiveGo","Go","Go_FiveGo",-0.8154991647,2.55022835305509,0.3,20
6,1,278,"FiveGo","Go","Go_FiveGo",-0.801065551165487,2.44404479591808,0.314,21
6,1,249,"FiveGo","Go","Go_FiveGo",-0.786631937630973,2.39619934709574,0.304,22
6,1,301,"FiveGo","Go","Go_FiveGo",-0.77219832409646,2.47856649559384,0.357,23
6,1,0,"FiveGo","NoGo","NoGo_FiveGo",-0.757764710561947,0,0,24
6,1,267,"ThreeGo","Go","Go_ThreeGo",-0.743331097027433,2.42651126136458,0.327,13
6,1,294,"ThreeGo","Go","Go_ThreeGo",-0.72889748349292,2.46834733041216,0.237,14
6,1,457,"ThreeGo","Go","Go_ThreeGo",-0.714463869958407,2.65991620006985,0.283,15
6,1,0,"ThreeGo","NoGo","NoGo_ThreeGo",-0.700030256423894,0,0.288,16
6,1,271,"SevenGo","Go","Go_SevenGo",-0.68559664288938,2.43296929087441,0.326,25
6,1,290,"SevenGo","Go","Go_SevenGo",-0.671163029354867,2.46239799789896,0.332,26
6,1,326,"SevenGo","Go","Go_SevenGo",-0.656729415820354,2.51321760006794,0.337,27
6,1,272,"SevenGo","Go","Go_SevenGo",-0.64229580228584,2.4345689040342,0,28
6,1,332,"SevenGo","Go","Go_SevenGo",-0.627862188751327,2.52113808370404,0.29,29
6,1,279,"SevenGo","Go","Go_SevenGo",-0.613428575216814,2.4456042032736,0.248,30
6,1,490,"SevenGo","Go","Go_SevenGo",-0.598994961682301,2.69019608002851,0.325,31
6,1,0,"SevenGo","NoGo","NoGo_SevenGo",-0.584561348147787,0,0,32
6,1,297,"OneGo","Go","Go_OneGo",-0.570127734613274,2.47275644931721,0.346,9
6,1,0,"OneGo","NoGo","NoGo_OneGo",-0.555694121078761,0,0.32,10
6,1,271,"FiveGo","Go","Go_FiveGo",-0.541260507544248,2.43296929087441,0.261,25
6,1,298,"FiveGo","Go","Go_FiveGo",-0.526826894009734,2.47421626407626,0.347,26
6,1,382,"FiveGo","Go","Go_FiveGo",-0.512393280475221,2.58206336291171,0.265,27
6,1,289,"FiveGo","Go","Go_FiveGo",-0.497959666940708,2.46089784275655,0.263,28
6,1,251,"FiveGo","Go","Go_FiveGo",-0.483526053406195,2.39967372148104,0.276,29
6,1,0,"FiveGo","NoGo","NoGo_FiveGo",-0.469092439871681,0,0,30
6,1,250,"ThreeGo","Go","Go_ThreeGo",-0.454658826337168,2.39794000867204,0.253,17
6,1,301,"ThreeGo","Go","Go_ThreeGo",-0.440225212802655,2.47856649559384,0.267,18
6,1,312,"ThreeGo","Go","Go_ThreeGo",-0.425791599268141,2.49415459401844,0.337,19
6,1,0,"ThreeGo","NoGo","NoGo_ThreeGo",-0.411357985733628,0,0.303,20
6,1,318,"SevenGo","Go","Go_SevenGo",-0.396924372199115,2.50242711998443,0.293,33
6,1,298,"SevenGo","Go","Go_SevenGo",-0.382490758664602,2.47421626407626,0,34
6,1,260,"SevenGo","Go","Go_SevenGo",-0.368057145130088,2.41497334797082,0.277,35
6,1,272,"SevenGo","Go","Go_SevenGo",-0.353623531595575,2.4345689040342,0.219,36
6,1,283,"SevenGo","Go","Go_SevenGo",-0.339189918061062,2.45178643552429,0.302,37
6,1,294,"SevenGo","Go","Go_SevenGo",-0.324756304526549,2.46834733041216,0.284,38
6,1,257,"SevenGo","Go","Go_SevenGo",-0.310322690992035,2.40993312333129,0.33,39
6,0,268,"SevenGo","NoGo","NoGo_SevenGo",-0.295889077457522,2.42813479402879,0,40
6,1,311,"SevenGo","Go","Go_SevenGo",-0.281455463923009,2.49276038902684,0.299,41
6,1,315,"SevenGo","Go","Go_SevenGo",-0.267021850388496,2.4983105537896,0.329,42
6,1,293,"SevenGo","Go","Go_SevenGo",-0.252588236853982,2.46686762035411,0.31,43
6,1,305,"SevenGo","Go","Go_SevenGo",-0.238154623319469,2.48429983934679,0.292,44
6,1,316,"SevenGo","Go","Go_SevenGo",-0.223721009784956,2.4996870826184,0.306,45
6,1,303,"SevenGo","Go","Go_SevenGo",-0.209287396250442,2.4814426285023,0,46
6,1,298,"SevenGo","Go","Go_SevenGo",-0.194853782715929,2.47421626407626,0.299,47
6,1,0,"SevenGo","NoGo","NoGo_SevenGo",-0.180420169181416,0,0.289,48
6,1,296,"OneGo","Go","Go_OneGo",-0.165986555646903,2.47129171105894,0.303,11
6,0,276,"OneGo","NoGo","NoGo_OneGo",-0.151552942112389,2.44090908206522,0.285,12
6,1,310,"FiveGo","Go","Go_FiveGo",-0.137119328577876,2.49136169383427,0.29,31
6,1,346,"FiveGo","Go","Go_FiveGo",-0.122685715043363,2.53907609879278,0.368,32
6,1,453,"FiveGo","Go","Go_FiveGo",-0.10825210150885,2.65609820201283,0.35,33
6,1,336,"FiveGo","Go","Go_FiveGo",-0.0938184879743363,2.52633927738984,0,34
6,1,331,"FiveGo","Go","Go_FiveGo",-0.079384874439823,2.51982799377572,0.302,35
6,1,0,"FiveGo","NoGo","NoGo_FiveGo",-0.0649512609053097,0,0,36
6,1,297,"ThreeGo","Go","Go_ThreeGo",-0.0505176473707964,2.47275644931721,0.216,21
6,1,333,"ThreeGo","Go","Go_ThreeGo",-0.0360840338362832,2.52244423350632,0.014,22
6,1,343,"ThreeGo","Go","Go_ThreeGo",-0.0216504203017699,2.53529412004277,0.267,23
6,1,0,"ThreeGo","NoGo","NoGo_ThreeGo",-0.00721680676725664,0,0,24
6,1,302,"SevenGo","Go","Go_SevenGo",0.00721680676725664,2.48000694295715,0.244,49
6,1,289,"SevenGo","Go","Go_SevenGo",0.0216504203017699,2.46089784275655,0.226,50
6,1,268,"SevenGo","Go","Go_SevenGo",0.0360840338362832,2.42813479402879,0.247,51
6,1,271,"SevenGo","Go","Go_SevenGo",0.0505176473707964,2.43296929087441,0.285,52
6,1,378,"SevenGo","Go","Go_SevenGo",0.0649512609053097,2.57749179983723,0.291,53
6,1,334,"SevenGo","Go","Go_SevenGo",0.079384874439823,2.52374646681156,0.265,54
