"","subj_idx","response","rt","cond","stim","trial_z","rt_log_trim_grp","prev_rt","prev_rt_z","prev_error","id","since_nogo","since_nogo_z","DISINH","ANTAG"
"1",1,1,NA,"ThreeGo","Go",-1.72481681737434,NA,NA,NA,NA,"1",0,-1.21265359665437,-1.338,-1.221
"2",1,1,486,"ThreeGo","Go",-1.71038320383982,2.68663626926229,NA,NA,0,"1",1,-0.727592157992621,-1.338,-1.221
"3",1,1,380,"ThreeGo","Go",-1.69594959030531,2.57978359661681,2.68663626926229,1.07817040965726,0,"1",2,-0.242530719330874,-1.338,-1.221
"4",1,1,0,"ThreeGo","NoGo",-1.6815159767708,0,2.57978359661681,-0.200777135306905,0,"1",3,0.242530719330874,-1.338,-1.221
"5",1,1,533,"FiveGo","Go",-1.66708236323628,2.72672720902657,NA,NA,0,"1",0,-1.21265359665437,-1.338,-1.221
"6",1,1,467,"FiveGo","Go",-1.65264874970177,2.66931688056611,2.72672720902657,1.55802933800576,0,"1",1,-0.727592157992621,-1.338,-1.221
"7",1,1,497,"FiveGo","Go",-1.63821513616726,2.69635638873333,2.66931688056611,0.870870123152015,0,"1",2,-0.242530719330874,-1.338,-1.221
"8",1,1,422,"FiveGo","Go",-1.62378152263274,2.62531245096167,2.69635638873333,1.19451305815134,0,"1",3,0.242530719330874,-1.338,-1.221
"9",1,1,468,"FiveGo","Go",-1.60934790909823,2.67024585307412,2.62531245096167,0.34416961284402,0,"1",4,0.727592157992621,-1.338,-1.221
"10",1,1,0,"FiveGo","NoGo",-1.59491429556372,0,2.67024585307412,0.881989237714556,0,"1",5,1.21265359665437,-1.338,-1.221
"11",1,1,389,"OneGo","Go",-1.5804806820292,2.58994960132571,NA,NA,0,"1",0,-1.21265359665437,-1.338,-1.221
"12",1,1,0,"OneGo","NoGo",-1.56604706849469,0,2.58994960132571,-0.0790975699517226,0,"1",1,-0.727592157992621,-1.338,-1.221
"13",1,1,510,"SevenGo","Go",-1.55161345496018,2.70757017609794,NA,NA,0,"1",0,-1.21265359665437,-1.338,-1.221
"14",1,1,484,"SevenGo","Go",-1.53717984142566,2.68484536164441,2.70757017609794,1.32873380775581,0,"1",1,-0.727592157992621,-1.338,-1.221
"15",1,1,426,"SevenGo","Go",-1.52274622789115,2.62940959910272,2.68484536164441,1.05673456865828,0,"1",2,-0.242530719330874,-1.338,-1.221
"16",1,1,431,"SevenGo","Go",-1.50831261435664,2.63447727016073,2.62940959910272,0.393209448971811,0,"1",3,0.242530719330874,-1.338,-1.221
"17",1,1,445,"SevenGo","Go",-1.49387900082212,2.64836001098093,2.63447727016073,0.453865727358331,0,"1",4,0.727592157992621,-1.338,-1.221
"18",1,1,507,"SevenGo","Go",-1.47944538728761,2.70500795933334,2.64836001098093,0.620031877907301,0,"1",5,1.21265359665437,-1.338,-1.221
"19",1,1,457,"SevenGo","Go",-1.4650117737531,2.65991620006985,2.70500795933334,1.29806596614156,0,"1",6,1.69771503531611,-1.338,-1.221
"20",1,1,0,"SevenGo","NoGo",-1.45057816021858,0,2.65991620006985,0.758350923173043,0,"1",7,2.18277647397786,-1.338,-1.221
"21",1,1,569,"SevenGo","Go",-1.43614454668407,2.75511226639507,NA,NA,0,"1",0,-1.21265359665437,-1.338,-1.221
"22",1,1,351,"SevenGo","Go",-1.42171093314956,2.54530711646582,2.75511226639507,1.8977775028042,0,"1",1,-0.727592157992621,-1.338,-1.221
"23",1,1,333,"SevenGo","Go",-1.40727731961504,2.52244423350632,2.54530711646582,-0.613435130249254,0,"1",2,-0.242530719330874,-1.338,-1.221
"24",1,1,434,"SevenGo","Go",-1.39284370608053,2.63748972951251,2.52244423350632,-0.887086947353262,0,"1",3,0.242530719330874,-1.338,-1.221
"25",1,1,480,"SevenGo","Go",-1.37841009254602,2.68124123737559,2.63748972951251,0.489922640085689,0,"1",4,0.727592157992621,-1.338,-1.221
"26",1,1,374,"SevenGo","Go",-1.3639764790115,2.57287160220048,2.68124123737559,1.01359586401729,0,"1",5,1.21265359665437,-1.338,-1.221
"27",1,1,420,"SevenGo","Go",-1.34954286547699,2.6232492903979,2.57287160220048,-0.283508601640009,0,"1",6,1.69771503531611,-1.338,-1.221
"28",1,0,322,"SevenGo","NoGo",-1.33510925194248,2.50785587169583,2.6232492903979,0.319475105233011,0,"1",7,2.18277647397786,-1.338,-1.221
"29",1,1,549,"OneGo","Go",-1.32067563840796,2.73957234445009,2.50785587169583,-1.06169885981781,1,"1",0,-1.21265359665437,-1.338,-1.221
"30",1,1,0,"OneGo","NoGo",-1.30624202487345,0,2.73957234445009,1.7117761185767,0,"1",1,-0.727592157992621,-1.338,-1.221
"31",1,1,510,"ThreeGo","Go",-1.29180841133894,2.70757017609794,NA,NA,0,"1",0,-1.21265359665437,-1.338,-1.221
"32",1,1,435,"ThreeGo","Go",-1.27737479780442,2.63848925695464,2.70757017609794,1.32873380775581,0,"1",1,-0.727592157992621,-1.338,-1.221
"33",1,1,465,"ThreeGo","Go",-1.26294118426991,2.66745295288995,2.63848925695464,0.501886245081121,0,"1",2,-0.242530719330874,-1.338,-1.221
"34",1,1,0,"ThreeGo","NoGo",-1.2485075707354,0,2.66745295288995,0.848560286005265,0,"1",3,0.242530719330874,-1.338,-1.221
"35",1,1,523,"FiveGo","Go",-1.23407395720088,2.71850168886727,NA,NA,0,"1",0,-1.21265359665437,-1.338,-1.221
"36",1,1,344,"FiveGo","Go",-1.21964034366637,2.53655844257153,2.71850168886727,1.45957593900943,0,"1",1,-0.727592157992621,-1.338,-1.221
"37",1,1,334,"FiveGo","Go",-1.20520673013186,2.52374646681156,2.53655844257153,-0.718150292928599,0,"1",2,-0.242530719330874,-1.338,-1.221
"38",1,1,372,"FiveGo","Go",-1.19077311659734,2.5705429398819,2.52374646681156,-0.871500176826398,0,"1",3,0.242530719330874,-1.338,-1.221
"39",1,1,362,"FiveGo","Go",-1.17633950306283,2.55870857053317,2.5705429398819,-0.311380969093836,0,"1",4,0.727592157992621,-1.338,-1.221
"40",1,1,0,"FiveGo","NoGo",-1.16190588952832,0,2.55870857053317,-0.453029626539915,0,"1",5,1.21265359665437,-1.338,-1.221
"41",1,1,418,"OneGo","Go",-1.1474722759938,2.62117628177504,NA,NA,0,"1",0,-1.21265359665437,-1.338,-1.221
"42",1,1,0,"OneGo","NoGo",-1.13303866245929,0,2.62117628177504,0.294662723630795,0,"1",1,-0.727592157992621,-1.338,-1.221
"43",1,1,404,"ThreeGo","Go",-1.11860504892478,2.60638136511061,NA,NA,0,"1",0,-1.21265359665437,-1.338,-1.221
"44",1,1,346,"ThreeGo","Go",-1.10417143539027,2.53907609879278,2.60638136511061,0.117578502174753,0,"1",1,-0.727592157992621,-1.338,-1.221
"45",1,1,415,"ThreeGo","Go",-1.08973782185575,2.61804809671209,2.53907609879278,-0.688015808095313,0,"1",2,-0.242530719330874,-1.338,-1.221
"46",1,1,0,"ThreeGo","NoGo",-1.07530420832124,0,2.61804809671209,0.25722065964305,0,"1",3,0.242530719330874,-1.338,-1.221
"47",1,1,336,"SevenGo","Go",-1.06087059478673,2.52633927738984,NA,NA,0,"1",0,-1.21265359665437,-1.338,-1.221
"48",1,1,278,"SevenGo","Go",-1.04643698125221,2.44404479591808,2.52633927738984,-0.840466149866207,0,"1",1,-0.727592157992621,-1.338,-1.221
"49",1,1,411,"SevenGo","Go",-1.0320033677177,2.61384182187607,2.44404479591808,-1.82547029095691,0,"1",2,-0.242530719330874,-1.338,-1.221
"50",1,1,433,"SevenGo","Go",-1.01756975418319,2.63648789635337,2.61384182187607,0.206874657603208,0,"1",3,0.242530719330874,-1.338,-1.221
"51",1,1,359,"SevenGo","Go",-1.00313614064867,2.55509444857832,2.63648789635337,0.477931437361197,0,"1",4,0.727592157992621,-1.338,-1.221
"52",1,1,357,"SevenGo","Go",-0.988702527114159,2.55266821611219,2.55509444857832,-0.496287996096028,0,"1",5,1.21265359665437,-1.338,-1.221
"53",1,1,354,"SevenGo","Go",-0.974268913579646,2.54900326202579,2.55266821611219,-0.525328206127688,0,"1",6,1.69771503531611,-1.338,-1.221
"54",1,1,0,"SevenGo","NoGo",-0.959835300045133,0,2.54900326202579,-0.569194998741848,0,"1",7,2.18277647397786,-1.338,-1.221
"55",1,1,436,"FiveGo","Go",-0.945401686510619,2.63948648926859,NA,NA,0,"1",0,-1.21265359665437,-1.338,-1.221
"56",1,1,401,"FiveGo","Go",-0.930968072976106,2.60314437262018,2.63948648926859,0.513822379087956,0,"1",1,-0.727592157992621,-1.338,-1.221
"57",1,1,NA,"FiveGo","Go",-0.916534459441593,NA,2.60314437262018,0.0788340936709184,0,"1",2,-0.242530719330874,-1.338,-1.221
"58",1,1,477,"FiveGo","Go",-0.902100845907079,2.67851837904011,NA,NA,0,"1",3,0.242530719330874,-1.338,-1.221
"59",1,1,379,"FiveGo","Go",-0.887667232372566,2.57863920996807,2.67851837904011,0.981005261487383,0,"1",4,0.727592157992621,-1.338,-1.221
"60",1,1,0,"FiveGo","NoGo",-0.873233618838053,0,2.57863920996807,-0.214474597978261,0,"1",5,1.21265359665437,-1.338,-1.221
"61",1,1,331,"FiveGo","Go",-0.85880000530354,2.51982799377572,NA,NA,0,"1",0,-1.21265359665437,-1.338,-1.221
"62",1,1,273,"FiveGo","Go",-0.844366391769026,2.43616264704076,2.51982799377572,-0.918401403956422,0,"1",1,-0.727592157992621,-1.338,-1.221
"63",1,1,312,"FiveGo","Go",-0.829932778234513,2.49415459401844,2.43616264704076,-1.91981378940301,0,"1",2,-0.242530719330874,-1.338,-1.221
"64",1,1,262,"FiveGo","Go",-0.8154991647,2.41830129131975,2.49415459401844,-1.22569303061885,0,"1",3,0.242530719330874,-1.338,-1.221
"65",1,1,331,"FiveGo","Go",-0.801065551165487,2.51982799377572,2.41830129131975,-2.13360102077072,0,"1",4,0.727592157992621,-1.338,-1.221
"66",1,1,0,"FiveGo","NoGo",-0.786631937630973,0,2.51982799377572,-0.918401403956422,0,"1",5,1.21265359665437,-1.338,-1.221
"67",1,1,540,"OneGo","Go",-0.77219832409646,2.73239375982297,NA,NA,0,"1",0,-1.21265359665437,-1.338,-1.221
"68",1,1,0,"OneGo","NoGo",-0.757764710561947,0,2.73239375982297,1.62585376438689,0,"1",1,-0.727592157992621,-1.338,-1.221
"69",1,1,460,"SevenGo","Go",-0.743331097027433,2.66275783168157,NA,NA,0,"1",0,-1.21265359665437,-1.338,-1.221
"70",1,1,410,"SevenGo","Go",-0.72889748349292,2.61278385671974,2.66275783168157,0.792363154065571,0,"1",1,-0.727592157992621,-1.338,-1.221
"71",1,1,441,"SevenGo","Go",-0.714463869958407,2.64443858946784,2.61278385671974,0.194211596344688,0,"1",2,-0.242530719330874,-1.338,-1.221
"72",1,1,431,"SevenGo","Go",-0.700030256423894,2.63447727016073,2.64443858946784,0.573095359683031,0,"1",3,0.242530719330874,-1.338,-1.221
"73",1,1,492,"SevenGo","Go",-0.68559664288938,2.69196510276736,2.63447727016073,0.453865727358331,0,"1",4,0.727592157992621,-1.338,-1.221
"74",1,1,466,"SevenGo","Go",-0.671163029354867,2.66838591669,2.69196510276736,1.14195260957887,0,"1",5,1.21265359665437,-1.338,-1.221
"75",1,1,400,"SevenGo","Go",-0.656729415820354,2.60205999132796,2.66838591669,0.859727173384614,0,"1",6,1.69771503531611,-1.338,-1.221
"76",1,0,294,"SevenGo","NoGo",-0.64229580228584,2.46834733041216,2.60205999132796,0.0658548507829901,0,"1",7,2.18277647397786,-1.338,-1.221
"77",1,1,568,"ThreeGo","Go",-0.627862188751327,2.75434833571102,2.46834733041216,-1.53458690865037,1,"1",0,-1.21265359665437,-1.338,-1.221
"78",1,1,NA,"ThreeGo","Go",-0.613428575216814,NA,2.75434833571102,1.88863381693562,0,"1",1,-0.727592157992621,-1.338,-1.221
"79",1,1,508,"ThreeGo","Go",-0.598994961682301,2.70586371228392,NA,NA,0,"1",2,-0.242530719330874,-1.338,-1.221
"80",1,1,0,"ThreeGo","NoGo",-0.584561348147787,0,2.70586371228392,1.30830869669891,0,"1",3,0.242530719330874,-1.338,-1.221
"81",1,1,NA,"ThreeGo","Go",-0.570127734613274,NA,NA,NA,0,"1",0,-1.21265359665437,-1.338,-1.221
"82",1,1,462,"ThreeGo","Go",-0.555694121078761,2.66464197555613,NA,NA,0,"1",1,-0.727592157992621,-1.338,-1.221
"83",1,1,532,"ThreeGo","Go",-0.541260507544248,2.72591163229505,2.66464197555613,0.814914964170716,0,"1",2,-0.242530719330874,-1.338,-1.221
"84",1,1,0,"ThreeGo","NoGo",-0.526826894009734,0,2.72591163229505,1.54826748710692,0,"1",3,0.242530719330874,-1.338,-1.221
"85",1,1,500,"OneGo","Go",-0.512393280475221,2.69897000433602,NA,NA,0,"1",0,-1.21265359665437,-1.338,-1.221
"86",1,1,0,"OneGo","NoGo",-0.497959666940708,0,2.69897000433602,1.22579610588221,0,"1",1,-0.727592157992621,-1.338,-1.221
"87",1,1,502,"FiveGo","Go",-0.483526053406195,2.70070371714502,NA,NA,0,"1",0,-1.21265359665437,-1.338,-1.221
"88",1,1,NA,"FiveGo","Go",-0.469092439871681,NA,2.70070371714502,1.24654736727649,0,"1",1,-0.727592157992621,-1.338,-1.221
"89",1,1,378,"FiveGo","Go",-0.454658826337168,2.57749179983723,NA,NA,0,"1",2,-0.242530719330874,-1.338,-1.221
"90",1,1,375,"FiveGo","Go",-0.440225212802655,2.57403126772772,2.57749179983723,-0.228208249496493,0,"1",3,0.242530719330874,-1.338,-1.221
"91",1,1,429,"FiveGo","Go",-0.425791599268141,2.63245729218472,2.57403126772772,-0.269628262081592,0,"1",4,0.727592157992621,-1.338,-1.221
"92",1,1,0,"FiveGo","NoGo",-0.411357985733628,0,2.63245729218472,0.429688083417955,0,"1",5,1.21265359665437,-1.338,-1.221
"93",1,1,254,"SevenGo","Go",-0.396924372199115,2.40483371661994,NA,NA,0,"1",0,-1.21265359665437,-1.338,-1.221
"94",1,1,379,"SevenGo","Go",-0.382490758664602,2.57863920996807,2.40483371661994,-2.2947979395983,0,"1",1,-0.727592157992621,-1.338,-1.221
"95",1,1,409,"SevenGo","Go",-0.368057145130088,2.61172330800734,2.57863920996807,-0.214474597978261,0,"1",2,-0.242530719330874,-1.338,-1.221
"96",1,1,343,"SevenGo","Go",-0.353623531595575,2.53529412004277,2.61172330800734,0.181517611828841,0,"1",3,0.242530719330874,-1.338,-1.221
"97",1,1,421,"SevenGo","Go",-0.339189918061062,2.62428209583567,2.53529412004277,-0.733283299470846,0,"1",4,0.727592157992621,-1.338,-1.221
"98",1,1,483,"SevenGo","Go",-0.324756304526549,2.68394713075151,2.62428209583567,0.331837023249272,0,"1",5,1.21265359665437,-1.338,-1.221
"99",1,1,339,"SevenGo","Go",-0.310322690992035,2.53019969820308,2.68394713075151,1.04598340851559,0,"1",6,1.69771503531611,-1.338,-1.221
"100",1,1,0,"SevenGo","NoGo",-0.295889077457522,0,2.53019969820308,-0.794259764949634,0,"1",7,2.18277647397786,-1.338,-1.221
"101",1,1,474,"OneGo","Go",-0.281455463923009,2.67577834167409,NA,NA,0,"1",0,-1.21265359665437,-1.338,-1.221
"102",1,1,0,"OneGo","NoGo",-0.267021850388496,0,2.67577834167409,0.948209038654398,0,"1",1,-0.727592157992621,-1.338,-1.221
"103",1,1,458,"SevenGo","Go",-0.252588236853982,2.66086547800387,NA,NA,0,"1",0,-1.21265359665437,-1.338,-1.221
"104",1,1,NA,"SevenGo","Go",-0.238154623319469,NA,2.66086547800387,0.769713078682543,0,"1",1,-0.727592157992621,-1.338,-1.221
"105",1,1,438,"SevenGo","Go",-0.223721009784956,2.6414741105041,NA,NA,0,"1",2,-0.242530719330874,-1.338,-1.221
"106",1,1,499,"SevenGo","Go",-0.209287396250442,2.69810054562339,2.6414741105041,0.537612736750874,0,"1",3,0.242530719330874,-1.338,-1.221
"107",1,1,338,"SevenGo","Go",-0.194853782715929,2.52891670027765,2.69810054562339,1.21538932747944,0,"1",4,0.727592157992621,-1.338,-1.221
"108",1,1,416,"SevenGo","Go",-0.180420169181416,2.61909333062674,2.52891670027765,-0.809616302191965,0,"1",5,1.21265359665437,-1.338,-1.221
"109",1,1,398,"SevenGo","Go",-0.165986555646903,2.59988307207369,2.61909333062674,0.26973133734496,0,"1",6,1.69771503531611,-1.338,-1.221
"110",1,1,0,"SevenGo","NoGo",-0.151552942112389,0,2.59988307207369,0.0397987356957123,0,"1",7,2.18277647397786,-1.338,-1.221
"111",1,1,342,"FiveGo","Go",-0.137119328577876,2.53402610605613,NA,NA,0,"1",0,-1.21265359665437,-1.338,-1.221
"112",1,1,292,"FiveGo","Go",-0.122685715043363,2.46538285144842,2.53402610605613,-0.748460490036532,0,"1",1,-0.727592157992621,-1.338,-1.221
"113",1,1,330,"FiveGo","Go",-0.10825210150885,2.51851393987789,2.46538285144842,-1.57006953158253,0,"1",2,-0.242530719330874,-1.338,-1.221
"114",1,1,279,"FiveGo","Go",-0.0938184879743363,2.4456042032736,2.51851393987789,-0.93412965824311,0,"1",3,0.242530719330874,-1.338,-1.221
"115",1,1,293,"FiveGo","Go",-0.079384874439823,2.46686762035411,2.4456042032736,-1.80680533705764,0,"1",4,0.727592157992621,-1.338,-1.221
"116",1,0,339,"FiveGo","NoGo",-0.0649512609053097,2.53019969820308,2.46686762035411,-1.55229794478215,0,"1",5,1.21265359665437,-1.338,-1.221
"117",1,1,375,"ThreeGo","Go",-0.0505176473707964,2.57403126772772,2.53019969820308,-0.794259764949634,1,"1",0,-1.21265359665437,-1.338,-1.221
"118",1,1,348,"ThreeGo","Go",-0.0360840338362832,2.54157924394658,2.57403126772772,-0.269628262081592,0,"1",1,-0.727592157992621,-1.338,-1.221
"119",1,1,490,"ThreeGo","Go",-0.0216504203017699,2.69019608002851,2.54157924394658,-0.658055010018102,0,"1",2,-0.242530719330874,-1.338,-1.221
"120",1,1,0,"ThreeGo","NoGo",-0.00721680676725664,0,2.69019608002851,1.12077871441254,0,"1",3,0.242530719330874,-1.338,-1.221
"121",1,1,259,"OneGo","Go",0.00721680676725664,2.41329976408125,NA,NA,0,"1",0,-1.21265359665437,-1.338,-1.221
"122",1,0,256,"OneGo","NoGo",0.0216504203017699,2.40823996531185,2.41329976408125,-2.19346560650714,0,"1",1,-0.727592157992621,-1.338,-1.221
"123",1,1,379,"ThreeGo","Go",0.0360840338362832,2.57863920996807,2.40823996531185,-2.25402765941533,1,"1",0,-1.21265359665437,-1.338,-1.221
"124",1,1,505,"ThreeGo","Go",0.0505176473707964,2.70329137811866,2.57863920996807,-0.214474597978261,0,"1",1,-0.727592157992621,-1.338,-1.221
"125",1,1,416,"ThreeGo","Go",0.0649512609053097,2.61909333062674,2.70329137811866,1.27751975727385,0,"1",2,-0.242530719330874,-1.338,-1.221
"126",1,1,0,"ThreeGo","NoGo",0.079384874439823,0,2.61909333062674,0.26973133734496,0,"1",3,0.242530719330874,-1.338,-1.221
"127",1,1,496,"SevenGo","Go",0.0938184879743363,2.6954816764902,NA,NA,0,"1",0,-1.21265359665437,-1.338,-1.221
"128",1,1,334,"SevenGo","Go",0.10825210150885,2.52374646681156,2.6954816764902,1.18404339886997,0,"1",1,-0.727592157992621,-1.338,-1.221
"129",1,1,316,"SevenGo","Go",0.122685715043363,2.4996870826184,2.52374646681156,-0.871500176826398,0,"1",2,-0.242530719330874,-1.338,-1.221
"130",1,1,337,"SevenGo","Go",0.137119328577876,2.52762990087134,2.4996870826184,-1.15947322967913,0,"1",3,0.242530719330874,-1.338,-1.221
"131",1,1,359,"SevenGo","Go",0.151552942112389,2.55509444857832,2.52762990087134,-0.825018340351757,0,"1",4,0.727592157992621,-1.338,-1.221
"132",1,1,317,"SevenGo","Go",0.165986555646903,2.50105926221775,2.55509444857832,-0.496287996096028,0,"1",5,1.21265359665437,-1.338,-1.221
"133",1,1,347,"SevenGo","Go",0.180420169181416,2.54032947479087,2.50105926221775,-1.14304925369061,0,"1",6,1.69771503531611,-1.338,-1.221
"134",1,1,0,"SevenGo","NoGo",0.194853782715929,0,2.54032947479087,-0.673013823437494,0,"1",7,2.18277647397786,-1.338,-1.221
"135",1,1,284,"FiveGo","Go",0.209287396250442,2.45331834004704,NA,NA,0,"1",0,-1.21265359665437,-1.338,-1.221
"136",1,1,346,"FiveGo","Go",0.223721009784956,2.53907609879278,2.45331834004704,-1.71447281936159,0,"1",1,-0.727592157992621,-1.338,-1.221
"137",1,0,0,"FiveGo","Go",0.238154623319469,0,2.53907609879278,-0.688015808095313,0,"1",2,-0.242530719330874,-1.338,-1.221
"138",1,1,397,"FiveGo","Go",0.252588236853982,2.59879050676312,NA,NA,1,"1",3,0.242530719330874,-1.338,-1.221
"139",1,1,395,"FiveGo","Go",0.267021850388496,2.59659709562646,2.59879050676312,0.0267215361547858,0,"1",4,0.727592157992621,-1.338,-1.221
"140",1,1,0,"FiveGo","NoGo",0.281455463923009,0,2.59659709562646,0.000468025420097013,0,"1",5,1.21265359665437,-1.338,-1.221
"141",1,1,420,"OneGo","Go",0.295889077457522,2.6232492903979,NA,NA,0,"1",0,-1.21265359665437,-1.338,-1.221
"142",1,0,393,"OneGo","NoGo",0.310322690992035,2.59439255037543,2.6232492903979,0.319475105233011,0,"1",1,-0.727592157992621,-1.338,-1.221
"143",1,1,485,"FiveGo","Go",0.324756304526549,2.68574173860226,2.59439255037543,-0.0259187524373165,1,"1",0,-1.21265359665437,-1.338,-1.221
"144",1,1,443,"FiveGo","Go",0.339189918061062,2.64640372622307,2.68574173860226,1.06746353856817,0,"1",1,-0.727592157992621,-1.338,-1.221
"145",1,1,417,"FiveGo","Go",0.353623531595575,2.62013605497376,2.64640372622307,0.596616594729337,0,"1",2,-0.242530719330874,-1.338,-1.221
"146",1,1,358,"FiveGo","Go",0.368057145130088,2.55388302664387,2.62013605497376,0.28221197737649,0,"1",3,0.242530719330874,-1.338,-1.221
"147",1,1,348,"FiveGo","Go",0.382490758664602,2.54157924394658,2.55388302664387,-0.510787821609243,0,"1",4,0.727592157992621,-1.338,-1.221
"148",1,1,0,"FiveGo","NoGo",0.396924372199115,0,2.54157924394658,-0.658055010018102,0,"1",5,1.21265359665437,-1.338,-1.221
"149",1,1,293,"SevenGo","Go",0.411357985733628,2.46686762035411,NA,NA,0,"1",0,-1.21265359665437,-1.338,-1.221
"150",1,1,386,"SevenGo","Go",0.425791599268141,2.58658730467176,2.46686762035411,-1.55229794478215,0,"1",1,-0.727592157992621,-1.338,-1.221
"151",1,1,368,"SevenGo","Go",0.440225212802655,2.56584781867352,2.58658730467176,-0.119341776713662,0,"1",2,-0.242530719330874,-1.338,-1.221
"152",1,1,374,"SevenGo","Go",0.454658826337168,2.57287160220048,2.56584781867352,-0.36757810103353,0,"1",3,0.242530719330874,-1.338,-1.221
"153",1,1,284,"SevenGo","Go",0.469092439871681,2.45331834004704,2.57287160220048,-0.283508601640009,0,"1",4,0.727592157992621,-1.338,-1.221
"154",1,1,377,"SevenGo","Go",0.483526053406195,2.57634135020579,2.45331834004704,-1.71447281936159,0,"1",5,1.21265359665437,-1.338,-1.221
"155",1,1,423,"SevenGo","Go",0.497959666940708,2.62634036737504,2.57634135020579,-0.241978281591216,0,"1",6,1.69771503531611,-1.338,-1.221
"156",1,1,0,"SevenGo","NoGo",0.512393280475221,0,2.62634036737504,0.356473012850401,0,"1",7,2.18277647397786,-1.338,-1.221
"157",1,1,345,"ThreeGo","Go",0.526826894009734,2.53781909507327,NA,NA,0,"1",0,-1.21265359665437,-1.338,-1.221
"158",1,1,318,"ThreeGo","Go",0.541260507544248,2.50242711998443,2.53781909507327,-0.703061213898234,0,"1",1,-0.727592157992621,-1.338,-1.221
"159",1,1,372,"ThreeGo","Go",0.555694121078761,2.5705429398819,2.50242711998443,-1.12667700684602,0,"1",2,-0.242530719330874,-1.338,-1.221
"160",1,1,0,"ThreeGo","NoGo",0.570127734613274,0,2.5705429398819,-0.311380969093836,0,"1",3,0.242530719330874,-1.338,-1.221
"161",1,1,473,"ThreeGo","Go",0.584561348147787,2.67486114073781,NA,NA,0,"1",0,-1.21265359665437,-1.338,-1.221
"162",1,1,366,"ThreeGo","Go",0.598994961682301,2.56348108539441,2.67486114073781,0.937230821108202,0,"1",1,-0.727592157992621,-1.338,-1.221
"163",1,1,380,"ThreeGo","Go",0.613428575216814,2.57978359661681,2.56348108539441,-0.395906149756703,0,"1",2,-0.242530719330874,-1.338,-1.221
"164",1,0,298,"ThreeGo","NoGo",0.627862188751327,2.47421626407626,2.57978359661681,-0.200777135306905,0,"1",3,0.242530719330874,-1.338,-1.221
"165",1,1,317,"OneGo","Go",0.64229580228584,2.50105926221775,2.47421626407626,-1.46434010887062,1,"1",0,-1.21265359665437,-1.338,-1.221
"166",1,1,0,"OneGo","NoGo",0.656729415820354,0,2.50105926221775,-1.14304925369061,0,"1",1,-0.727592157992621,-1.338,-1.221
"167",1,1,318,"SevenGo","Go",0.671163029354867,2.50242711998443,NA,NA,0,"1",0,-1.21265359665437,-1.338,-1.221
"168",1,1,540,"SevenGo","Go",0.68559664288938,2.73239375982297,2.50242711998443,-1.12667700684602,0,"1",1,-0.727592157992621,-1.338,-1.221
"169",1,1,474,"SevenGo","Go",0.700030256423894,2.67577834167409,2.73239375982297,1.62585376438689,0,"1",2,-0.242530719330874,-1.338,-1.221
"170",1,1,359,"SevenGo","Go",0.714463869958407,2.55509444857832,2.67577834167409,0.948209038654398,0,"1",3,0.242530719330874,-1.338,-1.221
"171",1,1,397,"SevenGo","Go",0.72889748349292,2.59879050676312,2.55509444857832,-0.496287996096028,0,"1",4,0.727592157992621,-1.338,-1.221
"172",1,1,555,"SevenGo","Go",0.743331097027433,2.74429298312268,2.59879050676312,0.0267215361547858,0,"1",5,1.21265359665437,-1.338,-1.221
"173",1,1,441,"SevenGo","Go",0.757764710561947,2.64443858946784,2.74429298312268,1.76827867570976,0,"1",6,1.69771503531611,-1.338,-1.221
"174",1,1,0,"SevenGo","NoGo",0.77219832409646,0,2.64443858946784,0.573095359683031,0,"1",7,2.18277647397786,-1.338,-1.221
"175",1,1,466,"FiveGo","Go",0.786631937630973,2.66838591669,NA,NA,0,"1",0,-1.21265359665437,-1.338,-1.221
"176",1,1,472,"FiveGo","Go",0.801065551165487,2.67394199863409,2.66838591669,0.859727173384614,0,"1",1,-0.727592157992621,-1.338,-1.221
"177",1,1,470,"FiveGo","Go",0.8154991647,2.67209785793572,2.67394199863409,0.926229369221962,0,"1",2,-0.242530719330874,-1.338,-1.221
"178",1,1,332,"FiveGo","Go",0.829932778234513,2.52113808370404,2.67209785793572,0.904156367580027,0,"1",3,0.242530719330874,-1.338,-1.221
"179",1,1,393,"FiveGo","Go",0.844366391769026,2.59439255037543,2.52113808370404,-0.902720595456051,0,"1",4,0.727592157992621,-1.338,-1.221
"180",1,1,0,"FiveGo","NoGo",0.85880000530354,0,2.59439255037543,-0.0259187524373165,0,"1",5,1.21265359665437,-1.338,-1.221
"181",1,1,538,"SevenGo","Go",0.873233618838053,2.73078227566639,NA,NA,0,"1",0,-1.21265359665437,-1.338,-1.221
"182",1,1,327,"SevenGo","Go",0.887667232372566,2.51454775266029,2.73078227566639,1.60656548965515,0,"1",1,-0.727592157992621,-1.338,-1.221
"183",1,1,333,"SevenGo","Go",0.902100845907079,2.52244423350632,2.51454775266029,-0.981601988875849,0,"1",2,-0.242530719330874,-1.338,-1.221
"184",1,1,387,"SevenGo","Go",0.916534459441593,2.58771096501891,2.52244423350632,-0.887086947353262,0,"1",3,0.242530719330874,-1.338,-1.221
"185",1,1,345,"SevenGo","Go",0.930968072976106,2.53781909507327,2.58771096501891,-0.105892392559002,0,"1",4,0.727592157992621,-1.338,-1.221
"186",1,1,375,"SevenGo","Go",0.945401686510619,2.57403126772772,2.53781909507327,-0.703061213898234,0,"1",5,1.21265359665437,-1.338,-1.221
"187",1,1,428,"SevenGo","Go",0.959835300045133,2.63144376901317,2.57403126772772,-0.269628262081592,0,"1",6,1.69771503531611,-1.338,-1.221
"188",1,1,0,"SevenGo","NoGo",0.974268913579646,0,2.63144376901317,0.417556959881917,0,"1",7,2.18277647397786,-1.338,-1.221
"189",1,1,302,"OneGo","Go",0.988702527114159,2.48000694295715,NA,NA,0,"1",0,-1.21265359665437,-1.338,-1.221
"190",1,0,292,"OneGo","NoGo",1.00313614064867,2.46538285144842,2.48000694295715,-1.39502996102844,0,"1",1,-0.727592157992621,-1.338,-1.221
"191",1,1,510,"ThreeGo","Go",1.01756975418319,2.70757017609794,2.46538285144842,-1.57006953158253,1,"1",0,-1.21265359665437,-1.338,-1.221
"192",1,1,316,"ThreeGo","Go",1.0320033677177,2.4996870826184,2.70757017609794,1.32873380775581,0,"1",1,-0.727592157992621,-1.338,-1.221
"193",1,1,514,"ThreeGo","Go",1.04643698125221,2.71096311899528,2.4996870826184,-1.15947322967913,0,"1",2,-0.242530719330874,-1.338,-1.221
"194",1,1,0,"ThreeGo","NoGo",1.06087059478673,0,2.71096311899528,1.36934482740858,0,"1",3,0.242530719330874,-1.338,-1.221
"195",1,1,251,"FiveGo","Go",1.07530420832124,2.39967372148104,NA,NA,0,"1",0,-1.21265359665437,-1.338,-1.221
"196",1,1,321,"FiveGo","Go",1.08973782185575,2.50650503240487,2.39967372148104,-2.35655926902072,0,"1",1,-0.727592157992621,-1.338,-1.221
"197",1,1,335,"FiveGo","Go",1.10417143539027,2.52504480703685,2.50650503240487,-1.07786740808189,0,"1",2,-0.242530719330874,-1.338,-1.221
"198",1,1,429,"FiveGo","Go",1.11860504892478,2.63245729218472,2.52504480703685,-0.855960003590188,0,"1",3,0.242530719330874,-1.338,-1.221
"199",1,1,394,"FiveGo","Go",1.13303866245929,2.59549622182557,2.63245729218472,0.429688083417955,0,"1",4,0.727592157992621,-1.338,-1.221
"200",1,0,560,"FiveGo","NoGo",1.1474722759938,2.7481880270062,2.59549622182557,-0.0127086206113503,0,"1",5,1.21265359665437,-1.338,-1.221
"201",1,1,371,"SevenGo","Go",1.16190588952832,2.56937390961505,2.7481880270062,1.81489947319682,1,"1",0,-1.21265359665437,-1.338,-1.221
"202",1,1,376,"SevenGo","Go",1.17633950306283,2.57518784492766,2.56937390961505,-0.325373397666372,0,"1",1,-0.727592157992621,-1.338,-1.221
"203",1,1,518,"SevenGo","Go",1.19077311659734,2.71432975974523,2.57518784492766,-0.255784887519196,0,"1",2,-0.242530719330874,-1.338,-1.221
"204",1,1,412,"SevenGo","Go",1.20520673013186,2.61489721603313,2.71432975974523,1.40964102979007,0,"1",3,0.242530719330874,-1.338,-1.221
"205",1,1,450,"SevenGo","Go",1.21964034366637,2.65321251377534,2.61489721603313,0.219506945900008,0,"1",4,0.727592157992621,-1.338,-1.221
"206",1,1,416,"SevenGo","Go",1.23407395720088,2.61909333062674,2.65321251377534,0.678112751152587,0,"1",5,1.21265359665437,-1.338,-1.221
"207",1,1,NA,"SevenGo","Go",1.2485075707354,NA,2.61909333062674,0.26973133734496,0,"1",6,1.69771503531611,-1.338,-1.221
"208",1,1,0,"SevenGo","NoGo",1.26294118426991,0,NA,NA,0,"1",7,2.18277647397786,-1.338,-1.221
"209",1,1,423,"OneGo","Go",1.27737479780442,2.62634036737504,NA,NA,0,"1",0,-1.21265359665437,-1.338,-1.221
"210",1,1,0,"OneGo","NoGo",1.29180841133894,0,2.62634036737504,0.356473012850401,0,"1",1,-0.727592157992621,-1.338,-1.221
"211",1,1,335,"FiveGo","Go",1.30624202487345,2.52504480703685,NA,NA,0,"1",0,-1.21265359665437,-1.338,-1.221
"212",1,1,301,"FiveGo","Go",1.32067563840796,2.47856649559384,2.52504480703685,-0.855960003590188,0,"1",1,-0.727592157992621,-1.338,-1.221
"213",1,1,291,"FiveGo","Go",1.33510925194248,2.46389298898591,2.47856649559384,-1.41227105171288,0,"1",2,-0.242530719330874,-1.338,-1.221
"214",1,1,369,"FiveGo","Go",1.34954286547699,2.56702636615906,2.46389298898591,-1.58790208449474,0,"1",3,0.242530719330874,-1.338,-1.221
"215",1,1,334,"FiveGo","Go",1.3639764790115,2.52374646681156,2.56702636615906,-0.353471758384932,0,"1",4,0.727592157992621,-1.338,-1.221
"216",1,0,292,"FiveGo","NoGo",1.37841009254602,2.46538285144842,2.52374646681156,-0.871500176826398,0,"1",5,1.21265359665437,-1.338,-1.221
"217",1,1,496,"ThreeGo","Go",1.39284370608053,2.6954816764902,2.46538285144842,-1.57006953158253,1,"1",0,-1.21265359665437,-1.338,-1.221
"218",1,1,454,"ThreeGo","Go",1.40727731961504,2.6570558528571,2.6954816764902,1.18404339886997,0,"1",1,-0.727592157992621,-1.338,-1.221
"219",1,1,459,"ThreeGo","Go",1.42171093314956,2.66181268553726,2.6570558528571,0.724114680363948,0,"1",2,-0.242530719330874,-1.338,-1.221
"220",1,1,0,"ThreeGo","NoGo",1.43614454668407,0,2.66181268553726,0.781050453026189,0,"1",3,0.242530719330874,-1.338,-1.221
"221",1,1,532,"ThreeGo","Go",1.45057816021858,2.72591163229505,NA,NA,0,"1",0,-1.21265359665437,-1.338,-1.221
"222",1,1,402,"ThreeGo","Go",1.4650117737531,2.60422605308447,2.72591163229505,1.54826748710692,0,"1",1,-0.727592157992621,-1.338,-1.221
"223",1,1,343,"ThreeGo","Go",1.47944538728761,2.53529412004277,2.60422605308447,0.0917810096439912,0,"1",2,-0.242530719330874,-1.338,-1.221
"224",1,0,309,"ThreeGo","NoGo",1.49387900082212,2.48995847942483,2.53529412004277,-0.733283299470846,0,"1",3,0.242530719330874,-1.338,-1.221
"225",1,1,417,"OneGo","Go",1.50831261435664,2.62013605497376,2.48995847942483,-1.2759174220638,1,"1",0,-1.21265359665437,-1.338,-1.221
"226",1,1,0,"OneGo","NoGo",1.52274622789115,0,2.62013605497376,0.28221197737649,0,"1",1,-0.727592157992621,-1.338,-1.221
"227",1,1,465,"FiveGo","Go",1.53717984142566,2.66745295288995,NA,NA,0,"1",0,-1.21265359665437,-1.338,-1.221
"228",1,1,351,"FiveGo","Go",1.55161345496018,2.54530711646582,2.66745295288995,0.848560286005265,0,"1",1,-0.727592157992621,-1.338,-1.221
"229",1,1,301,"FiveGo","Go",1.56604706849469,2.47856649559384,2.54530711646582,-0.613435130249254,0,"1",2,-0.242530719330874,-1.338,-1.221
"230",1,1,411,"FiveGo","Go",1.5804806820292,2.61384182187607,2.47856649559384,-1.41227105171288,0,"1",3,0.242530719330874,-1.338,-1.221
"231",1,1,464,"FiveGo","Go",1.59491429556372,2.66651798055488,2.61384182187607,0.206874657603208,0,"1",4,0.727592157992621,-1.338,-1.221
"232",1,1,0,"FiveGo","NoGo",1.60934790909823,0,2.66651798055488,0.837369357945708,0,"1",5,1.21265359665437,-1.338,-1.221
"233",1,1,426,"SevenGo","Go",1.62378152263274,2.62940959910272,NA,NA,0,"1",0,-1.21265359665437,-1.338,-1.221
"234",1,1,440,"SevenGo","Go",1.63821513616726,2.64345267648619,2.62940959910272,0.393209448971811,0,"1",1,-0.727592157992621,-1.338,-1.221
"235",1,1,485,"SevenGo","Go",1.65264874970177,2.68574173860226,2.64345267648619,0.561294709720696,0,"1",2,-0.242530719330874,-1.338,-1.221
"236",1,1,419,"SevenGo","Go",1.66708236323628,2.6222140229663,2.68574173860226,1.06746353856817,0,"1",3,0.242530719330874,-1.338,-1.221
"237",1,1,465,"SevenGo","Go",1.6815159767708,2.66745295288995,2.6222140229663,0.307083718969618,0,"1",4,0.727592157992621,-1.338,-1.221
"238",1,1,526,"SevenGo","Go",1.69594959030531,2.72098574415374,2.66745295288995,0.848560286005265,0,"1",5,1.21265359665437,-1.338,-1.221
"239",1,1,500,"SevenGo","Go",1.71038320383982,2.69897000433602,2.72098574415374,1.48930824547898,0,"1",6,1.69771503531611,-1.338,-1.221
"240",1,1,0,"SevenGo","NoGo",1.72481681737434,0,2.69897000433602,1.22579610588221,0,"1",7,2.18277647397786,-1.338,-1.221
"241",2,1,361,"SevenGo","Go",-1.72481681737434,2.55750720190566,NA,NA,NA,"2",0,-1.21265359665437,-0.004,1.484
"242",2,1,334,"SevenGo","Go",-1.71038320383982,2.52374646681156,2.55750720190566,0.414440387892452,0,"2",1,-0.727592157992621,-0.004,1.484
"243",2,1,284,"SevenGo","Go",-1.69594959030531,2.45331834004704,2.52374646681156,-0.0464616176579935,0,"2",2,-0.242530719330874,-0.004,1.484
"244",2,1,370,"SevenGo","Go",-1.6815159767708,2.56820172406699,2.45331834004704,-1.00794734308585,0,"2",3,0.242530719330874,-0.004,1.484
"245",2,1,320,"SevenGo","Go",-1.66708236323628,2.50514997831991,2.56820172406699,0.560442147001725,0,"2",4,0.727592157992621,-0.004,1.484
"246",2,1,277,"SevenGo","Go",-1.65264874970177,2.44247976906445,2.50514997831991,-0.300341126445565,0,"2",5,1.21265359665437,-0.004,1.484
"247",2,1,259,"SevenGo","Go",-1.63821513616726,2.41329976408125,2.44247976906445,-1.1559156586232,0,"2",6,1.69771503531611,-0.004,1.484
"248",2,1,0,"SevenGo","NoGo",-1.62378152263274,0,2.41329976408125,-1.55428147563644,0,"2",7,2.18277647397786,-0.004,1.484
"249",2,1,324,"ThreeGo","Go",-1.60934790909823,2.51054501020661,NA,NA,0,"2",0,-1.21265359665437,-0.004,1.484
"250",2,1,281,"ThreeGo","Go",-1.59491429556372,2.44870631990508,2.51054501020661,-0.226688079210134,0,"2",1,-0.727592157992621,-0.004,1.484
"251",2,1,287,"ThreeGo","Go",-1.5804806820292,2.45788189673399,2.44870631990508,-1.0709107035442,0,"2",2,-0.242530719330874,-0.004,1.484
"252",2,0,269,"ThreeGo","NoGo",-1.56604706849469,2.42975228000241,2.45788189673399,-0.945645606361343,0,"2",3,0.242530719330874,-0.004,1.484
"253",2,1,441,"FiveGo","Go",-1.55161345496018,2.64443858946784,2.42975228000241,-1.32967150896133,1,"2",0,-1.21265359665437,-0.004,1.484
"254",2,1,334,"FiveGo","Go",-1.53717984142566,2.52374646681156,2.64443858946784,1.60122884972586,0,"2",1,-0.727592157992621,-0.004,1.484
"255",2,1,332,"FiveGo","Go",-1.52274622789115,2.52113808370404,2.52374646681156,-0.0464616176579935,0,"2",2,-0.242530719330874,-0.004,1.484
"256",2,1,322,"FiveGo","Go",-1.50831261435664,2.50785587169583,2.52113808370404,-0.0820712986127817,0,"2",3,0.242530719330874,-0.004,1.484
"257",2,1,368,"FiveGo","Go",-1.49387900082212,2.56584781867352,2.50785587169583,-0.263400234006727,0,"2",4,0.727592157992621,-0.004,1.484
"258",2,1,0,"FiveGo","NoGo",-1.47944538728761,0,2.56584781867352,0.528306599191451,0,"2",5,1.21265359665437,-0.004,1.484
"259",2,1,312,"OneGo","Go",-1.4650117737531,2.49415459401844,NA,NA,0,"2",0,-1.21265359665437,-0.004,1.484
"260",2,0,278,"OneGo","NoGo",-1.45057816021858,2.44404479591808,2.49415459401844,-0.45045025950265,0,"2",1,-0.727592157992621,-0.004,1.484
"261",2,1,330,"FiveGo","Go",-1.43614454668407,2.51851393987789,2.44404479591808,-1.13454989115493,1,"2",0,-1.21265359665437,-0.004,1.484
"262",2,1,367,"FiveGo","Go",-1.42171093314956,2.56466606425209,2.51851393987789,-0.117896145108395,0,"2",1,-0.727592157992621,-0.004,1.484
"263",2,1,341,"FiveGo","Go",-1.40727731961504,2.5327543789925,2.56466606425209,0.512173272076775,0,"2",2,-0.242530719330874,-0.004,1.484
"264",2,1,331,"FiveGo","Go",-1.39284370608053,2.51982799377572,2.5327543789925,0.0765145195157246,0,"2",3,0.242530719330874,-0.004,1.484
"265",2,1,313,"FiveGo","Go",-1.37841009254602,2.49554433754645,2.51982799377572,-0.0999566637782893,0,"2",4,0.727592157992621,-0.004,1.484
"266",2,1,0,"FiveGo","NoGo",-1.3639764790115,0,2.49554433754645,-0.431477462332352,0,"2",5,1.21265359665437,-0.004,1.484
"267",2,1,329,"ThreeGo","Go",-1.34954286547699,2.51719589794997,NA,NA,0,"2",0,-1.21265359665437,-0.004,1.484
"268",2,1,351,"ThreeGo","Go",-1.33510925194248,2.54530711646582,2.51719589794997,-0.135890071078453,0,"2",1,-0.727592157992621,-0.004,1.484
"269",2,1,365,"ThreeGo","Go",-1.32067563840796,2.56229286445647,2.54530711646582,0.247884658835125,0,"2",2,-0.242530719330874,-0.004,1.484
"270",2,1,0,"ThreeGo","NoGo",-1.30624202487345,0,2.56229286445647,0.479774316831149,0,"2",3,0.242530719330874,-0.004,1.484
"271",2,1,318,"SevenGo","Go",-1.29180841133894,2.50242711998443,NA,NA,0,"2",0,-1.21265359665437,-0.004,1.484
"272",2,1,348,"SevenGo","Go",-1.27737479780442,2.54157924394658,2.50242711998443,-0.337513624738464,0,"2",1,-0.727592157992621,-0.004,1.484
"273",2,1,362,"SevenGo","Go",-1.26294118426991,2.55870857053317,2.54157924394658,0.196991693508242,0,"2",2,-0.242530719330874,-0.004,1.484
"274",2,1,319,"SevenGo","Go",-1.2485075707354,2.50379068305718,2.55870857053317,0.430841488410001,0,"2",3,0.242530719330874,-0.004,1.484
"275",2,1,325,"SevenGo","Go",-1.23407395720088,2.51188336097887,2.50379068305718,-0.318898243492369,0,"2",4,0.727592157992621,-0.004,1.484
"276",2,1,371,"SevenGo","Go",-1.21964034366637,2.56937390961505,2.51188336097887,-0.208416896626419,0,"2",5,1.21265359665437,-0.004,1.484
"277",2,1,313,"SevenGo","Go",-1.20520673013186,2.49554433754645,2.56937390961505,0.5764448397296,0,"2",6,1.69771503531611,-0.004,1.484
"278",2,1,0,"SevenGo","NoGo",-1.19077311659734,0,2.49554433754645,-0.431477462332352,0,"2",7,2.18277647397786,-0.004,1.484
"279",2,1,265,"OneGo","Go",-1.17633950306283,2.42324587393681,NA,NA,0,"2",0,-1.21265359665437,-0.004,1.484
"280",2,1,0,"OneGo","NoGo",-1.16190588952832,0,2.42324587393681,-1.41849705130222,0,"2",1,-0.727592157992621,-0.004,1.484
"281",2,1,331,"SevenGo","Go",-1.1474722759938,2.51982799377572,NA,NA,0,"2",0,-1.21265359665437,-0.004,1.484
"282",2,1,336,"SevenGo","Go",-1.13303866245929,2.52633927738984,2.51982799377572,-0.0999566637782893,0,"2",1,-0.727592157992621,-0.004,1.484
"283",2,1,334,"SevenGo","Go",-1.11860504892478,2.52374646681156,2.52633927738984,-0.0110645330799832,0,"2",2,-0.242530719330874,-0.004,1.484
"284",2,1,372,"SevenGo","Go",-1.10417143539027,2.5705429398819,2.52374646681156,-0.0464616176579935,0,"2",3,0.242530719330874,-0.004,1.484
"285",2,1,346,"SevenGo","Go",-1.08973782185575,2.53907609879278,2.5705429398819,0.592404456516335,0,"2",4,0.727592157992621,-0.004,1.484
"286",2,1,335,"SevenGo","Go",-1.07530420832124,2.52504480703685,2.53907609879278,0.162818722500512,0,"2",5,1.21265359665437,-0.004,1.484
"287",2,1,333,"SevenGo","Go",-1.06087059478673,2.52244423350632,2.52504480703685,-0.0287366595948753,0,"2",6,1.69771503531611,-0.004,1.484
"288",2,0,299,"SevenGo","NoGo",-1.04643698125221,2.47567118832443,2.52244423350632,-0.0642397241004851,0,"2",7,2.18277647397786,-0.004,1.484
"289",2,1,374,"OneGo","Go",-1.0320033677177,2.57287160220048,2.47567118832443,-0.702785960429394,1,"2",0,-1.21265359665437,-0.004,1.484
"290",2,1,0,"OneGo","NoGo",-1.01756975418319,0,2.57287160220048,0.624195385531704,0,"2",1,-0.727592157992621,-0.004,1.484
"291",2,1,351,"ThreeGo","Go",-1.00313614064867,2.54530711646582,NA,NA,0,"2",0,-1.21265359665437,-0.004,1.484
"292",2,1,421,"ThreeGo","Go",-0.988702527114159,2.62428209583567,2.54530711646582,0.247884658835125,0,"2",1,-0.727592157992621,-0.004,1.484
"293",2,1,531,"ThreeGo","Go",-0.974268913579646,2.72509452108147,2.62428209583567,1.32605212996434,0,"2",2,-0.242530719330874,-0.004,1.484
"294",2,1,0,"ThreeGo","NoGo",-0.959835300045133,0,2.72509452108147,2.702344703295,0,"2",3,0.242530719330874,-0.004,1.484
"295",2,1,259,"FiveGo","Go",-0.945401686510619,2.41329976408125,NA,NA,0,"2",0,-1.21265359665437,-0.004,1.484
"296",2,1,401,"FiveGo","Go",-0.930968072976106,2.60314437262018,2.41329976408125,-1.55428147563644,0,"2",1,-0.727592157992621,-0.004,1.484
"297",2,1,415,"FiveGo","Go",-0.916534459441593,2.61804809671209,2.60314437262018,1.03747965085111,0,"2",2,-0.242530719330874,-0.004,1.484
"298",2,1,324,"FiveGo","Go",-0.902100845907079,2.51054501020661,2.61804809671209,1.24094549082721,0,"2",3,0.242530719330874,-0.004,1.484
"299",2,1,322,"FiveGo","Go",-0.887667232372566,2.50785587169583,2.51054501020661,-0.226688079210134,0,"2",4,0.727592157992621,-0.004,1.484
"300",2,1,0,"FiveGo","NoGo",-0.873233618838053,0,2.50785587169583,-0.263400234006727,0,"2",5,1.21265359665437,-0.004,1.484
"301",2,1,340,"SevenGo","Go",-0.85880000530354,2.53147891704225,NA,NA,0,"2",0,-1.21265359665437,-0.004,1.484
"302",2,1,345,"SevenGo","Go",-0.844366391769026,2.53781909507327,2.53147891704225,0.0591018959684271,0,"2",1,-0.727592157992621,-0.004,1.484
"303",2,1,311,"SevenGo","Go",-0.829932778234513,2.49276038902684,2.53781909507327,0.145658090965338,0,"2",2,-0.242530719330874,-0.004,1.484
"304",2,1,349,"SevenGo","Go",-0.8154991647,2.54282542695918,2.49276038902684,-0.469483964633354,0,"2",3,0.242530719330874,-0.004,1.484
"305",2,1,307,"SevenGo","Go",-0.801065551165487,2.48713837547719,2.54282542695918,0.214004600608441,0,"2",4,0.727592157992621,-0.004,1.484
"306",2,1,368,"SevenGo","Go",-0.786631937630973,2.56584781867352,2.48713837547719,-0.546235768557148,0,"2",5,1.21265359665437,-0.004,1.484
"307",2,1,326,"SevenGo","Go",-0.77219832409646,2.51321760006794,2.56584781867352,0.528306599191451,0,"2",6,1.69771503531611,-0.004,1.484
"308",2,1,0,"SevenGo","NoGo",-0.757764710561947,0,2.51321760006794,-0.19020184679643,0,"2",7,2.18277647397786,-0.004,1.484
"309",2,1,327,"FiveGo","Go",-0.743331097027433,2.51454775266029,NA,NA,0,"2",0,-1.21265359665437,-0.004,1.484
"310",2,1,341,"FiveGo","Go",-0.72889748349292,2.5327543789925,2.51454775266029,-0.172042585874134,0,"2",1,-0.727592157992621,-0.004,1.484
"311",2,1,347,"FiveGo","Go",-0.714463869958407,2.54032947479087,2.5327543789925,0.0765145195157246,0,"2",2,-0.242530719330874,-0.004,1.484
"312",2,1,385,"FiveGo","Go",-0.700030256423894,2.5854607295085,2.54032947479087,0.179929828334505,0,"2",3,0.242530719330874,-0.004,1.484
"313",2,1,375,"FiveGo","Go",-0.68559664288938,2.57403126772772,2.5854607295085,0.796062319359531,0,"2",4,0.727592157992621,-0.004,1.484
"314",2,1,0,"FiveGo","NoGo",-0.671163029354867,0,2.57403126772772,0.640027154768453,0,"2",5,1.21265359665437,-0.004,1.484
"315",2,1,319,"OneGo","Go",-0.656729415820354,2.50379068305718,NA,NA,0,"2",0,-1.21265359665437,-0.004,1.484
"316",2,1,0,"OneGo","NoGo",-0.64229580228584,0,2.50379068305718,-0.318898243492369,0,"2",1,-0.727592157992621,-0.004,1.484
"317",2,1,288,"ThreeGo","Go",-0.627862188751327,2.45939248775923,NA,NA,0,"2",0,-1.21265359665437,-0.004,1.484
"318",2,1,333,"ThreeGo","Go",-0.613428575216814,2.52244423350632,2.45939248775923,-0.925022997547908,0,"2",1,-0.727592157992621,-0.004,1.484
"319",2,1,340,"ThreeGo","Go",-0.598994961682301,2.53147891704225,2.52244423350632,-0.0642397241004851,0,"2",2,-0.242530719330874,-0.004,1.484
"320",2,1,0,"ThreeGo","NoGo",-0.584561348147787,0,2.53147891704225,0.0591018959684271,0,"2",3,0.242530719330874,-0.004,1.484
"321",2,1,562,"ThreeGo","Go",-0.570127734613274,2.74973631556906,NA,NA,0,"2",0,-1.21265359665437,-0.004,1.484
"322",2,1,336,"ThreeGo","Go",-0.555694121078761,2.52633927738984,2.74973631556906,3.0387548101258,0,"2",1,-0.727592157992621,-0.004,1.484
"323",2,1,334,"ThreeGo","Go",-0.541260507544248,2.52374646681156,2.52633927738984,-0.0110645330799832,0,"2",2,-0.242530719330874,-0.004,1.484
"324",2,1,0,"ThreeGo","NoGo",-0.526826894009734,0,2.52374646681156,-0.0464616176579935,0,"2",3,0.242530719330874,-0.004,1.484
"325",2,1,311,"FiveGo","Go",-0.512393280475221,2.49276038902684,NA,NA,0,"2",0,-1.21265359665437,-0.004,1.484
"326",2,1,333,"FiveGo","Go",-0.497959666940708,2.52244423350632,2.49276038902684,-0.469483964633354,0,"2",1,-0.727592157992621,-0.004,1.484
"327",2,1,419,"FiveGo","Go",-0.483526053406195,2.6222140229663,2.52244423350632,-0.0642397241004851,0,"2",2,-0.242530719330874,-0.004,1.484
"328",2,1,392,"FiveGo","Go",-0.469092439871681,2.59328606702046,2.6222140229663,1.29781877158336,0,"2",3,0.242530719330874,-0.004,1.484
"329",2,1,414,"FiveGo","Go",-0.454658826337168,2.6170003411209,2.59328606702046,0.902893931388075,0,"2",4,0.727592157992621,-0.004,1.484
"330",2,1,0,"FiveGo","NoGo",-0.440225212802655,0,2.6170003411209,1.22664151752923,0,"2",5,1.21265359665437,-0.004,1.484
"331",2,1,319,"SevenGo","Go",-0.425791599268141,2.50379068305718,NA,NA,0,"2",0,-1.21265359665437,-0.004,1.484
"332",2,1,308,"SevenGo","Go",-0.411357985733628,2.48855071650044,2.50379068305718,-0.318898243492369,0,"2",1,-0.727592157992621,-0.004,1.484
"333",2,1,282,"SevenGo","Go",-0.396924372199115,2.45024910831936,2.48855071650044,-0.5269544700806,0,"2",2,-0.242530719330874,-0.004,1.484
"334",2,1,384,"SevenGo","Go",-0.382490758664602,2.58433122436753,2.45024910831936,-1.04984853554638,0,"2",3,0.242530719330874,-0.004,1.484
"335",2,1,414,"SevenGo","Go",-0.368057145130088,2.6170003411209,2.58433122436753,0.780642300118195,0,"2",4,0.727592157992621,-0.004,1.484
"336",2,1,275,"SevenGo","Go",-0.353623531595575,2.43933269383026,2.6170003411209,1.22664151752923,0,"2",5,1.21265359665437,-0.004,1.484
"337",2,1,281,"SevenGo","Go",-0.339189918061062,2.44870631990508,2.43933269383026,-1.19887957167229,0,"2",6,1.69771503531611,-0.004,1.484
"338",2,0,288,"SevenGo","NoGo",-0.324756304526549,2.45939248775923,2.44870631990508,-1.0709107035442,0,"2",7,2.18277647397786,-0.004,1.484
"339",2,1,315,"OneGo","Go",-0.310322690992035,2.4983105537896,2.45939248775923,-0.925022997547908,1,"2",0,-1.21265359665437,-0.004,1.484
"340",2,NA,NA,"OneGo","NoGo",-0.295889077457522,NA,2.4983105537896,-0.393713041305962,0,"2",1,-0.727592157992621,-0.004,1.484
"341",2,1,491,"OneGo","Go",-0.281455463923009,2.69108149212297,NA,NA,NA,"2",0,-1.21265359665437,-0.004,1.484
"342",2,1,0,"OneGo","NoGo",-0.267021850388496,0,2.69108149212297,2.23799837854458,0,"2",1,-0.727592157992621,-0.004,1.484
"343",2,1,349,"ThreeGo","Go",-0.252588236853982,2.54282542695918,NA,NA,0,"2",0,-1.21265359665437,-0.004,1.484
"344",2,1,482,"ThreeGo","Go",-0.238154623319469,2.68304703823885,2.54282542695918,0.214004600608441,0,"2",1,-0.727592157992621,-0.004,1.484
"345",2,1,312,"ThreeGo","Go",-0.223721009784956,2.49415459401844,2.68304703823885,2.12831190701569,0,"2",2,-0.242530719330874,-0.004,1.484
"346",2,1,0,"ThreeGo","NoGo",-0.209287396250442,0,2.49415459401844,-0.45045025950265,0,"2",3,0.242530719330874,-0.004,1.484
"347",2,1,289,"SevenGo","Go",-0.194853782715929,2.46089784275655,NA,NA,0,"2",0,-1.21265359665437,-0.004,1.484
"348",2,1,438,"SevenGo","Go",-0.180420169181416,2.6414741105041,2.46089784275655,-0.904471871057438,0,"2",1,-0.727592157992621,-0.004,1.484
"349",2,1,348,"SevenGo","Go",-0.165986555646903,2.54157924394658,2.6414741105041,1.56075774339504,0,"2",2,-0.242530719330874,-0.004,1.484
"350",2,1,354,"SevenGo","Go",-0.151552942112389,2.54900326202579,2.54157924394658,0.196991693508242,0,"2",3,0.242530719330874,-0.004,1.484
"351",2,1,344,"SevenGo","Go",-0.137119328577876,2.53655844257153,2.54900326202579,0.298344487291119,0,"2",4,0.727592157992621,-0.004,1.484
"352",2,1,397,"SevenGo","Go",-0.122685715043363,2.59879050676312,2.53655844257153,0.128447646206518,0,"2",5,1.21265359665437,-0.004,1.484
"353",2,1,331,"SevenGo","Go",-0.10825210150885,2.51982799377572,2.59879050676312,0.978040616131532,0,"2",6,1.69771503531611,-0.004,1.484
"354",2,1,0,"SevenGo","NoGo",-0.0938184879743363,0,2.51982799377572,-0.0999566637782893,0,"2",7,2.18277647397786,-0.004,1.484
"355",2,1,357,"FiveGo","Go",-0.079384874439823,2.55266821611219,NA,NA,0,"2",0,-1.21265359665437,-0.004,1.484
"356",2,1,306,"FiveGo","Go",-0.0649512609053097,2.48572142648158,2.55266821611219,0.348378489334142,0,"2",1,-0.727592157992621,-0.004,1.484
"357",2,1,304,"FiveGo","Go",-0.0505176473707964,2.48287358360875,2.48572142648158,-0.565579975133783,0,"2",2,-0.242530719330874,-0.004,1.484
"358",2,1,286,"FiveGo","Go",-0.0360840338362832,2.45636603312904,2.48287358360875,-0.604458763996689,0,"2",3,0.242530719330874,-0.004,1.484
"359",2,1,252,"FiveGo","Go",-0.0216504203017699,2.40140054078154,2.45636603312904,-0.966340196503266,0,"2",4,0.727592157992621,-0.004,1.484
"360",2,1,0,"FiveGo","NoGo",-0.00721680676725664,0,2.40140054078154,-1.71672983074609,0,"2",5,1.21265359665437,-0.004,1.484
"361",2,1,260,"OneGo","Go",0.00721680676725664,2.41497334797082,NA,NA,0,"2",0,-1.21265359665437,-0.004,1.484
"362",2,0,275,"OneGo","NoGo",0.0216504203017699,2.43933269383026,2.41497334797082,-1.53143368606641,0,"2",1,-0.727592157992621,-0.004,1.484
"363",2,1,326,"ThreeGo","Go",0.0360840338362832,2.51321760006794,2.43933269383026,-1.19887957167229,1,"2",0,-1.21265359665437,-0.004,1.484
"364",2,1,316,"ThreeGo","Go",0.0505176473707964,2.4996870826184,2.51321760006794,-0.19020184679643,0,"2",1,-0.727592157992621,-0.004,1.484
"365",2,1,345,"ThreeGo","Go",0.0649512609053097,2.53781909507327,2.4996870826184,-0.374920651385437,0,"2",2,-0.242530719330874,-0.004,1.484
"366",2,1,0,"ThreeGo","NoGo",0.079384874439823,0,2.53781909507327,0.145658090965338,0,"2",3,0.242530719330874,-0.004,1.484
"367",2,1,290,"SevenGo","Go",0.0938184879743363,2.46239799789896,NA,NA,0,"2",0,-1.21265359665437,-0.004,1.484
"368",2,1,247,"SevenGo","Go",0.10825210150885,2.39269695325967,2.46239799789896,-0.883991733055512,0,"2",1,-0.727592157992621,-0.004,1.484
"369",2,1,317,"SevenGo","Go",0.122685715043363,2.50105926221775,2.39269695325967,-1.8355513236174,0,"2",2,-0.242530719330874,-0.004,1.484
"370",2,1,299,"SevenGo","Go",0.137119328577876,2.47567118832443,2.50105926221775,-0.356187637203339,0,"2",3,0.242530719330874,-0.004,1.484
"371",2,1,353,"SevenGo","Go",0.151552942112389,2.54777470538782,2.47567118832443,-0.702785960429394,0,"2",4,0.727592157992621,-0.004,1.484
"372",2,1,280,"SevenGo","Go",0.165986555646903,2.44715803134222,2.54777470538782,0.281572215692343,0,"2",5,1.21265359665437,-0.004,1.484
"373",2,1,325,"SevenGo","Go",0.180420169181416,2.51188336097887,2.44715803134222,-1.09204795964374,0,"2",6,1.69771503531611,-0.004,1.484
"374",2,1,0,"SevenGo","NoGo",0.194853782715929,0,2.51188336097887,-0.208416896626419,0,"2",7,2.18277647397786,-0.004,1.484
"375",2,1,246,"FiveGo","Go",0.209287396250442,2.39093510710338,NA,NA,0,"2",0,-1.21265359665437,-0.004,1.484
"376",2,1,228,"FiveGo","Go",0.223721009784956,2.35793484700045,2.39093510710338,-1.85960407082927,0,"2",1,-0.727592157992621,-0.004,1.484
"377",2,1,337,"FiveGo","Go",0.238154623319469,2.52762990087134,2.35793484700045,-2.31012406166279,0,"2",2,-0.242530719330874,-0.004,1.484
"378",2,1,303,"FiveGo","Go",0.252588236853982,2.4814426285023,2.52762990087134,0.00655507589404366,0,"2",3,0.242530719330874,-0.004,1.484
"379",2,1,325,"FiveGo","Go",0.267021850388496,2.51188336097887,2.4814426285023,-0.623994182185219,0,"2",4,0.727592157992621,-0.004,1.484
"380",2,1,0,"FiveGo","NoGo",0.281455463923009,0,2.51188336097887,-0.208416896626419,0,"2",5,1.21265359665437,-0.004,1.484
"381",2,1,310,"OneGo","Go",0.295889077457522,2.49136169383427,NA,NA,0,"2",0,-1.21265359665437,-0.004,1.484
"382",2,1,0,"OneGo","NoGo",0.310322690992035,0,2.49136169383427,-0.488578970047558,0,"2",1,-0.727592157992621,-0.004,1.484
"383",2,1,447,"SevenGo","Go",0.324756304526549,2.65030752313194,NA,NA,0,"2",0,-1.21265359665437,-0.004,1.484
"384",2,1,309,"SevenGo","Go",0.339189918061062,2.48995847942483,2.65030752313194,1.68135161034368,0,"2",1,-0.727592157992621,-0.004,1.484
"385",2,1,330,"SevenGo","Go",0.353623531595575,2.51851393987789,2.48995847942483,-0.50773567187071,0,"2",2,-0.242530719330874,-0.004,1.484
"386",2,1,320,"SevenGo","Go",0.368057145130088,2.50514997831991,2.51851393987789,-0.117896145108395,0,"2",3,0.242530719330874,-0.004,1.484
"387",2,1,382,"SevenGo","Go",0.382490758664602,2.58206336291171,2.50514997831991,-0.300341126445565,0,"2",4,0.727592157992621,-0.004,1.484
"388",2,1,315,"SevenGo","Go",0.396924372199115,2.4983105537896,2.58206336291171,0.749681425291723,0,"2",5,1.21265359665437,-0.004,1.484
"389",2,1,353,"SevenGo","Go",0.411357985733628,2.54777470538782,2.4983105537896,-0.393713041305962,0,"2",6,1.69771503531611,-0.004,1.484
"390",2,1,0,"SevenGo","NoGo",0.425791599268141,0,2.54777470538782,0.281572215692343,0,"2",7,2.18277647397786,-0.004,1.484
"391",2,1,299,"ThreeGo","Go",0.440225212802655,2.47567118832443,NA,NA,0,"2",0,-1.21265359665437,-0.004,1.484
"392",2,1,313,"ThreeGo","Go",0.454658826337168,2.49554433754645,2.47567118832443,-0.702785960429394,0,"2",1,-0.727592157992621,-0.004,1.484
"393",2,1,390,"ThreeGo","Go",0.469092439871681,2.5910646070265,2.49554433754645,-0.431477462332352,0,"2",2,-0.242530719330874,-0.004,1.484
"394",2,0,292,"ThreeGo","NoGo",0.483526053406195,2.46538285144842,2.5910646070265,0.872566529937474,0,"2",3,0.242530719330874,-0.004,1.484
"395",2,1,247,"FiveGo","Go",0.497959666940708,2.39269695325967,2.46538285144842,-0.843242472608842,1,"2",0,-1.21265359665437,-0.004,1.484
"396",2,1,332,"FiveGo","Go",0.512393280475221,2.52113808370404,2.39269695325967,-1.8355513236174,0,"2",1,-0.727592157992621,-0.004,1.484
"397",2,1,322,"FiveGo","Go",0.526826894009734,2.50785587169583,2.52113808370404,-0.0820712986127817,0,"2",2,-0.242530719330874,-0.004,1.484
"398",2,1,304,"FiveGo","Go",0.541260507544248,2.48287358360875,2.50785587169583,-0.263400234006727,0,"2",3,0.242530719330874,-0.004,1.484
"399",2,1,278,"FiveGo","Go",0.555694121078761,2.44404479591808,2.48287358360875,-0.604458763996689,0,"2",4,0.727592157992621,-0.004,1.484
"400",2,0,316,"FiveGo","NoGo",0.570127734613274,2.4996870826184,2.44404479591808,-1.13454989115493,0,"2",5,1.21265359665437,-0.004,1.484
"401",2,1,408,"OneGo","Go",0.584561348147787,2.61066016308988,2.4996870826184,-0.374920651385437,1,"2",0,-1.21265359665437,-0.004,1.484
"402",2,1,0,"OneGo","NoGo",0.598994961682301,0,2.61066016308988,1.14008532253232,0,"2",1,-0.727592157992621,-0.004,1.484
"403",2,1,352,"ThreeGo","Go",0.613428575216814,2.54654266347813,NA,NA,0,"2",0,-1.21265359665437,-0.004,1.484
"404",2,1,334,"ThreeGo","Go",0.627862188751327,2.52374646681156,2.54654266347813,0.264752363117578,0,"2",1,-0.727592157992621,-0.004,1.484
"405",2,1,324,"ThreeGo","Go",0.64229580228584,2.51054501020661,2.52374646681156,-0.0464616176579935,0,"2",2,-0.242530719330874,-0.004,1.484
"406",2,1,0,"ThreeGo","NoGo",0.656729415820354,0,2.51054501020661,-0.226688079210134,0,"2",3,0.242530719330874,-0.004,1.484
"407",2,1,381,"FiveGo","Go",0.671163029354867,2.58092497567562,NA,NA,0,"2",0,-1.21265359665437,-0.004,1.484
"408",2,1,315,"FiveGo","Go",0.68559664288938,2.4983105537896,2.58092497567562,0.734140147569409,0,"2",1,-0.727592157992621,-0.004,1.484
"409",2,1,305,"FiveGo","Go",0.700030256423894,2.48429983934679,2.4983105537896,-0.393713041305962,0,"2",2,-0.242530719330874,-0.004,1.484
"410",2,1,326,"FiveGo","Go",0.714463869958407,2.51321760006794,2.48429983934679,-0.584987501648335,0,"2",3,0.242530719330874,-0.004,1.484
"411",2,1,324,"FiveGo","Go",0.72889748349292,2.51054501020661,2.51321760006794,-0.19020184679643,0,"2",4,0.727592157992621,-0.004,1.484
"412",2,0,322,"FiveGo","NoGo",0.743331097027433,2.50785587169583,2.51054501020661,-0.226688079210134,0,"2",5,1.21265359665437,-0.004,1.484
"413",2,1,309,"SevenGo","Go",0.757764710561947,2.48995847942483,2.50785587169583,-0.263400234006727,1,"2",0,-1.21265359665437,-0.004,1.484
"414",2,1,378,"SevenGo","Go",0.77219832409646,2.57749179983723,2.48995847942483,-0.50773567187071,0,"2",1,-0.727592157992621,-0.004,1.484
"415",2,1,344,"SevenGo","Go",0.786631937630973,2.53655844257153,2.57749179983723,0.687270385257931,0,"2",2,-0.242530719330874,-0.004,1.484
"416",2,1,342,"SevenGo","Go",0.801065551165487,2.53402610605613,2.53655844257153,0.128447646206518,0,"2",3,0.242530719330874,-0.004,1.484
"417",2,1,324,"SevenGo","Go",0.8154991647,2.51054501020661,2.53402610605613,0.0938761543410923,0,"2",4,0.727592157992621,-0.004,1.484
"418",2,1,377,"SevenGo","Go",0.829932778234513,2.57634135020579,2.51054501020661,-0.226688079210134,0,"2",5,1.21265359665437,-0.004,1.484
"419",2,1,359,"SevenGo","Go",0.844366391769026,2.55509444857832,2.57634135020579,0.6715644315535,0,"2",6,1.69771503531611,-0.004,1.484
"420",2,1,0,"SevenGo","NoGo",0.85880000530354,0,2.55509444857832,0.381501447304516,0,"2",7,2.18277647397786,-0.004,1.484
"421",2,1,281,"FiveGo","Go",0.873233618838053,2.44870631990508,NA,NA,0,"2",0,-1.21265359665437,-0.004,1.484
"422",2,1,375,"FiveGo","Go",0.887667232372566,2.57403126772772,2.44870631990508,-1.0709107035442,0,"2",1,-0.727592157992621,-0.004,1.484
"423",2,1,556,"FiveGo","Go",0.902100845907079,2.74507479158206,2.57403126772772,0.640027154768453,0,"2",2,-0.242530719330874,-0.004,1.484
"424",2,1,362,"FiveGo","Go",0.916534459441593,2.55870857053317,2.74507479158206,2.97511562251506,0,"2",3,0.242530719330874,-0.004,1.484
"425",2,1,288,"FiveGo","Go",0.930968072976106,2.45939248775923,2.55870857053317,0.430841488410001,0,"2",4,0.727592157992621,-0.004,1.484
"426",2,0,293,"FiveGo","NoGo",0.945401686510619,2.46686762035411,2.45939248775923,-0.925022997547908,0,"2",5,1.21265359665437,-0.004,1.484
"427",2,1,240,"ThreeGo","Go",0.959835300045133,2.38021124171161,2.46686762035411,-0.822972387715726,1,"2",0,-1.21265359665437,-0.004,1.484
"428",2,1,358,"ThreeGo","Go",0.974268913579646,2.55388302664387,2.38021124171161,-2.00600642411167,0,"2",1,-0.727592157992621,-0.004,1.484
"429",2,1,380,"ThreeGo","Go",0.988702527114159,2.57978359661681,2.55388302664387,0.364963098906609,0,"2",2,-0.242530719330874,-0.004,1.484
"430",2,1,0,"ThreeGo","NoGo",1.00313614064867,0,2.57978359661681,0.718558025443442,0,"2",3,0.242530719330874,-0.004,1.484
"431",2,1,429,"SevenGo","Go",1.01756975418319,2.63245729218472,NA,NA,0,"2",0,-1.21265359665437,-0.004,1.484
"432",2,1,347,"SevenGo","Go",1.0320033677177,2.54032947479087,2.63245729218472,1.43766001950062,0,"2",1,-0.727592157992621,-0.004,1.484
"433",2,1,345,"SevenGo","Go",1.04643698125221,2.53781909507327,2.54032947479087,0.179929828334505,0,"2",2,-0.242530719330874,-0.004,1.484
"434",2,1,446,"SevenGo","Go",1.06087059478673,2.64933485871214,2.53781909507327,0.145658090965338,0,"2",3,0.242530719330874,-0.004,1.484
"435",2,1,460,"SevenGo","Go",1.07530420832124,2.66275783168157,2.64933485871214,1.66807278271852,0,"2",4,0.727592157992621,-0.004,1.484
"436",2,1,466,"SevenGo","Go",1.08973782185575,2.66838591669,2.66275783168157,1.85132338863144,0,"2",5,1.21265359665437,-0.004,1.484
"437",2,1,512,"SevenGo","Go",1.10417143539027,2.70926996097583,2.66838591669,1.92815808019144,0,"2",6,1.69771503531611,-0.004,1.484
"438",2,1,0,"SevenGo","NoGo",1.11860504892478,0,2.70926996097583,2.4863075977843,0,"2",7,2.18277647397786,-0.004,1.484
"439",2,1,368,"OneGo","Go",1.13303866245929,2.56584781867352,NA,NA,0,"2",0,-1.21265359665437,-0.004,1.484
"440",2,1,0,"OneGo","NoGo",1.1474722759938,0,2.56584781867352,0.528306599191451,0,"2",1,-0.727592157992621,-0.004,1.484
"441",2,1,258,"FiveGo","Go",1.16190588952832,2.41161970596323,NA,NA,0,"2",0,-1.21265359665437,-0.004,1.484
"442",2,1,424,"FiveGo","Go",1.17633950306283,2.62736585659273,2.41161970596323,-1.57721765145958,0,"2",1,-0.727592157992621,-0.004,1.484
"443",2,1,421,"FiveGo","Go",1.19077311659734,2.62428209583567,2.62736585659273,1.36815167292764,0,"2",2,-0.242530719330874,-0.004,1.484
"444",2,1,427,"FiveGo","Go",1.20520673013186,2.63042787502502,2.62428209583567,1.32605212996434,0,"2",3,0.242530719330874,-0.004,1.484
"445",2,1,529,"FiveGo","Go",1.21964034366637,2.72345567203519,2.63042787502502,1.40995438938335,0,"2",4,0.727592157992621,-0.004,1.484
"446",2,1,0,"FiveGo","NoGo",1.23407395720088,0,2.72345567203519,2.6799711142686,0,"2",5,1.21265359665437,-0.004,1.484
"447",2,1,297,"ThreeGo","Go",1.2485075707354,2.47275644931721,NA,NA,0,"2",0,-1.21265359665437,-0.004,1.484
"448",2,1,351,"ThreeGo","Go",1.26294118426991,2.54530711646582,2.47275644931721,-0.742578016210744,0,"2",1,-0.727592157992621,-0.004,1.484
"449",2,1,446,"ThreeGo","Go",1.27737479780442,2.64933485871214,2.54530711646582,0.247884658835125,0,"2",2,-0.242530719330874,-0.004,1.484
"450",2,1,0,"ThreeGo","NoGo",1.29180841133894,0,2.64933485871214,1.66807278271852,0,"2",3,0.242530719330874,-0.004,1.484
"451",2,1,342,"OneGo","Go",1.30624202487345,2.53402610605613,NA,NA,0,"2",0,-1.21265359665437,-0.004,1.484
"452",2,1,0,"OneGo","NoGo",1.32067563840796,0,2.53402610605613,0.0938761543410923,0,"2",1,-0.727592157992621,-0.004,1.484
"453",2,1,375,"SevenGo","Go",1.33510925194248,2.57403126772772,NA,NA,0,"2",0,-1.21265359665437,-0.004,1.484
"454",2,1,445,"SevenGo","Go",1.34954286547699,2.64836001098093,2.57403126772772,0.640027154768453,0,"2",1,-0.727592157992621,-0.004,1.484
"455",2,1,562,"SevenGo","Go",1.3639764790115,2.74973631556906,2.64836001098093,1.65476414849688,0,"2",2,-0.242530719330874,-0.004,1.484
"456",2,1,321,"SevenGo","Go",1.37841009254602,2.50650503240487,2.74973631556906,3.0387548101258,0,"2",3,0.242530719330874,-0.004,1.484
"457",2,1,279,"SevenGo","Go",1.39284370608053,2.4456042032736,2.50650503240487,-0.281841910014206,0,"2",4,0.727592157992621,-0.004,1.484
"458",2,1,268,"SevenGo","Go",1.40727731961504,2.42813479402879,2.4456042032736,-1.11326084114977,0,"2",5,1.21265359665437,-0.004,1.484
"459",2,1,418,"SevenGo","Go",1.42171093314956,2.62117628177504,2.42813479402879,-1.35175344903501,0,"2",6,1.69771503531611,-0.004,1.484
"460",2,1,0,"SevenGo","NoGo",1.43614454668407,0,2.62117628177504,1.28365151500672,0,"2",7,2.18277647397786,-0.004,1.484
"461",2,1,267,"ThreeGo","Go",1.45057816021858,2.42651126136458,NA,NA,0,"2",0,-1.21265359665437,-0.004,1.484
"462",2,1,281,"ThreeGo","Go",1.4650117737531,2.44870631990508,2.42651126136458,-1.37391793860922,0,"2",1,-0.727592157992621,-0.004,1.484
"463",2,1,358,"ThreeGo","Go",1.47944538728761,2.55388302664387,2.44870631990508,-1.0709107035442,0,"2",2,-0.242530719330874,-0.004,1.484
"464",2,1,0,"ThreeGo","NoGo",1.49387900082212,0,2.55388302664387,0.364963098906609,0,"2",3,0.242530719330874,-0.004,1.484
"465",2,1,280,"FiveGo","Go",1.50831261435664,2.44715803134222,NA,NA,0,"2",0,-1.21265359665437,-0.004,1.484
"466",2,1,334,"FiveGo","Go",1.52274622789115,2.52374646681156,2.44715803134222,-1.09204795964374,0,"2",1,-0.727592157992621,-0.004,1.484
"467",2,1,371,"FiveGo","Go",1.53717984142566,2.56937390961505,2.52374646681156,-0.0464616176579935,0,"2",2,-0.242530719330874,-0.004,1.484
"468",2,1,321,"FiveGo","Go",1.55161345496018,2.50650503240487,2.56937390961505,0.5764448397296,0,"2",3,0.242530719330874,-0.004,1.484
"469",2,1,439,"FiveGo","Go",1.56604706849469,2.64246452024212,2.50650503240487,-0.281841910014206,0,"2",4,0.727592157992621,-0.004,1.484
"470",2,1,0,"FiveGo","NoGo",1.5804806820292,0,2.64246452024212,1.5742788303411,0,"2",5,1.21265359665437,-0.004,1.484
"471",2,1,327,"SevenGo","Go",1.59491429556372,2.51454775266029,NA,NA,0,"2",0,-1.21265359665437,-0.004,1.484
"472",2,1,341,"SevenGo","Go",1.60934790909823,2.5327543789925,2.51454775266029,-0.172042585874134,0,"2",1,-0.727592157992621,-0.004,1.484
"473",2,1,307,"SevenGo","Go",1.62378152263274,2.48713837547719,2.5327543789925,0.0765145195157246,0,"2",2,-0.242530719330874,-0.004,1.484
"474",2,1,281,"SevenGo","Go",1.63821513616726,2.44870631990508,2.48713837547719,-0.546235768557148,0,"2",3,0.242530719330874,-0.004,1.484
"475",2,1,262,"SevenGo","Go",1.65264874970177,2.41830129131975,2.44870631990508,-1.0709107035442,0,"2",4,0.727592157992621,-0.004,1.484
"476",2,1,244,"SevenGo","Go",1.66708236323628,2.38738982633873,2.41830129131975,-1.48600055910383,0,"2",5,1.21265359665437,-0.004,1.484
"477",2,1,282,"SevenGo","Go",1.6815159767708,2.45024910831936,2.38738982633873,-1.90800429108846,0,"2",6,1.69771503531611,-0.004,1.484
"478",2,0,424,"SevenGo","NoGo",1.69594959030531,2.62736585659273,2.45024910831936,-1.04984853554638,0,"2",7,2.18277647397786,-0.004,1.484
"479",2,1,267,"OneGo","Go",1.71038320383982,2.42651126136458,2.62736585659273,1.36815167292764,1,"2",0,-1.21265359665437,-0.004,1.484
"480",2,0,281,"OneGo","NoGo",1.72481681737434,2.44870631990508,2.42651126136458,-1.37391793860922,0,"2",1,-0.727592157992621,-0.004,1.484
"481",3,1,376,"FiveGo","Go",-1.72481681737434,2.57518784492766,NA,NA,NA,"3",0,-1.21265359665437,0.357,0.126
"482",3,1,342,"FiveGo","Go",-1.71038320383982,2.53402610605613,2.57518784492766,0.730273303258438,0,"3",1,-0.727592157992621,0.357,0.126
"483",3,1,308,"FiveGo","Go",-1.69594959030531,2.48855071650044,2.53402610605613,0.204853458017569,0,"3",2,-0.242530719330874,0.357,0.126
"484",3,1,281,"FiveGo","Go",-1.6815159767708,2.44870631990508,2.48855071650044,-0.375629116277786,0,"3",3,0.242530719330874,0.357,0.126
"485",3,1,351,"FiveGo","Go",-1.66708236323628,2.54530711646582,2.44870631990508,-0.884233399449357,0,"3",4,0.727592157992621,0.357,0.126
"486",3,1,0,"FiveGo","NoGo",-1.65264874970177,0,2.54530711646582,0.348852883360592,0,"3",5,1.21265359665437,0.357,0.126
"487",3,1,296,"OneGo","Go",-1.63821513616726,2.47129171105894,NA,NA,0,"3",0,-1.21265359665437,0.357,0.126
"488",3,1,0,"OneGo","NoGo",-1.62378152263274,0,2.47129171105894,-0.595936231980235,0,"3",1,-0.727592157992621,0.357,0.126
"489",3,1,489,"ThreeGo","Go",-1.60934790909823,2.68930885912362,NA,NA,0,"3",0,-1.21265359665437,0.357,0.126
"490",3,1,327,"ThreeGo","Go",-1.59491429556372,2.51454775266029,2.68930885912362,2.18700101354099,0,"3",1,-0.727592157992621,0.357,0.126
"491",3,1,309,"ThreeGo","Go",-1.5804806820292,2.48995847942483,2.51454775266029,-0.043783108545655,0,"3",2,-0.242530719330874,0.357,0.126
"492",3,1,0,"ThreeGo","NoGo",-1.56604706849469,0,2.48995847942483,-0.35765935605513,0,"3",3,0.242530719330874,0.357,0.126
"493",3,1,293,"SevenGo","Go",-1.55161345496018,2.46686762035411,NA,NA,0,"3",0,-1.21265359665437,0.357,0.126
"494",3,1,363,"SevenGo","Go",-1.53717984142566,2.55990662503611,2.46686762035411,-0.652408701734693,0,"3",1,-0.727592157992621,0.357,0.126
"495",3,1,361,"SevenGo","Go",-1.52274622789115,2.55750720190566,2.55990662503611,0.535212151552256,0,"3",2,-0.242530719330874,0.357,0.126
"496",3,1,326,"SevenGo","Go",-1.50831261435664,2.51321760006794,2.55750720190566,0.504584083729287,0,"3",3,0.242530719330874,0.357,0.126
"497",3,1,316,"SevenGo","Go",-1.49387900082212,2.4996870826184,2.51321760006794,-0.0607621912661556,0,"3",4,0.727592157992621,0.357,0.126
"498",3,1,314,"SevenGo","Go",-1.47944538728761,2.49692964807321,2.4996870826184,-0.233476041051625,0,"3",5,1.21265359665437,0.357,0.126
"499",3,1,336,"SevenGo","Go",-1.4650117737531,2.52633927738984,2.49692964807321,-0.268674039768769,0,"3",6,1.69771503531611,0.357,0.126
"500",3,1,0,"SevenGo","NoGo",-1.45057816021858,0,2.52633927738984,0.106732911146587,0,"3",7,2.18277647397786,0.357,0.126
"501",3,1,377,"OneGo","Go",-1.43614454668407,2.57634135020579,NA,NA,0,"3",0,-1.21265359665437,0.357,0.126
"502",3,0,327,"OneGo","NoGo",-1.42171093314956,2.51454775266029,2.57634135020579,0.744997524861689,0,"3",1,-0.727592157992621,0.357,0.126
"503",3,1,490,"SevenGo","Go",-1.40727731961504,2.69019608002851,2.51454775266029,-0.043783108545655,1,"3",0,-1.21265359665437,0.357,0.126
"504",3,1,335,"SevenGo","Go",-1.39284370608053,2.52504480703685,2.69019608002851,2.19832617820414,0,"3",1,-0.727592157992621,0.357,0.126
"505",3,1,349,"SevenGo","Go",-1.37841009254602,2.54282542695918,2.52504480703685,0.0902093037581888,0,"3",2,-0.242530719330874,0.357,0.126
"506",3,1,339,"SevenGo","Go",-1.3639764790115,2.53019969820308,2.54282542695918,0.317174704734946,0,"3",3,0.242530719330874,0.357,0.126
"507",3,1,465,"SevenGo","Go",-1.34954286547699,2.66745295288995,2.53019969820308,0.156010268271555,0,"3",4,0.727592157992621,0.357,0.126
"508",3,1,343,"SevenGo","Go",-1.33510925194248,2.53529412004277,2.66745295288995,1.9080155482589,0,"3",5,1.21265359665437,0.357,0.126
"509",3,1,356,"SevenGo","Go",-1.32067563840796,2.55144999797288,2.53529412004277,0.221039356157174,0,"3",6,1.69771503531611,0.357,0.126
"510",3,1,0,"SevenGo","NoGo",-1.30624202487345,0,2.55144999797288,0.427265310514029,0,"3",7,2.18277647397786,0.357,0.126
"511",3,1,366,"FiveGo","Go",-1.29180841133894,2.56348108539441,NA,NA,0,"3",0,-1.21265359665437,0.357,0.126
"512",3,1,323,"FiveGo","Go",-1.27737479780442,2.5092025223311,2.56348108539441,0.580839291215604,0,"3",1,-0.727592157992621,0.357,0.126
"513",3,1,329,"FiveGo","Go",-1.26294118426991,2.51719589794997,2.5092025223311,-0.11201370738176,0,"3",2,-0.242530719330874,0.357,0.126
"514",3,1,319,"FiveGo","Go",-1.2485075707354,2.50379068305718,2.51719589794997,-0.00998016128383763,0,"3",3,0.242530719330874,0.357,0.126
"515",3,1,341,"FiveGo","Go",-1.23407395720088,2.5327543789925,2.50379068305718,-0.181094553617294,0,"3",4,0.727592157992621,0.357,0.126
"516",3,1,0,"FiveGo","NoGo",-1.21964034366637,0,2.5327543789925,0.188620163329838,0,"3",5,1.21265359665437,0.357,0.126
"517",3,1,293,"ThreeGo","Go",-1.20520673013186,2.46686762035411,NA,NA,0,"3",0,-1.21265359665437,0.357,0.126
"518",3,1,339,"ThreeGo","Go",-1.19077311659734,2.53019969820308,2.46686762035411,-0.652408701734693,0,"3",1,-0.727592157992621,0.357,0.126
"519",3,1,329,"ThreeGo","Go",-1.17633950306283,2.51719589794997,2.53019969820308,0.156010268271555,0,"3",2,-0.242530719330874,0.357,0.126
"520",3,1,0,"ThreeGo","NoGo",-1.16190588952832,0,2.51719589794997,-0.00998016128383763,0,"3",3,0.242530719330874,0.357,0.126
"521",3,1,426,"SevenGo","Go",-1.1474722759938,2.62940959910272,NA,NA,0,"3",0,-1.21265359665437,0.357,0.126
"522",3,1,296,"SevenGo","Go",-1.13303866245929,2.47129171105894,2.62940959910272,1.42240114985564,0,"3",1,-0.727592157992621,0.357,0.126
"523",3,1,358,"SevenGo","Go",-1.11860504892478,2.55388302664387,2.47129171105894,-0.595936231980235,0,"3",2,-0.242530719330874,0.357,0.126
"524",3,1,348,"SevenGo","Go",-1.10417143539027,2.54157924394658,2.55388302664387,0.458322345100639,0,"3",3,0.242530719330874,0.357,0.126
"525",3,1,449,"SevenGo","Go",-1.08973782185575,2.65224634100332,2.54157924394658,0.301267473807073,0,"3",4,0.727592157992621,0.357,0.126
"526",3,1,311,"SevenGo","Go",-1.07530420832124,2.49276038902684,2.65224634100332,1.71390675006045,0,"3",5,1.21265359665437,0.357,0.126
"527",3,1,365,"SevenGo","Go",-1.06087059478673,2.56229286445647,2.49276038902684,-0.321893643774076,0,"3",6,1.69771503531611,0.357,0.126
"528",3,0,339,"SevenGo","NoGo",-1.04643698125221,2.53019969820308,2.56229286445647,0.565671932439219,0,"3",7,2.18277647397786,0.357,0.126
"529",3,1,310,"FiveGo","Go",-1.0320033677177,2.49136169383427,2.53019969820308,0.156010268271555,1,"3",0,-1.21265359665437,0.357,0.126
"530",3,1,300,"FiveGo","Go",-1.01756975418319,2.47712125471966,2.49136169383427,-0.339747656548247,0,"3",1,-0.727592157992621,0.357,0.126
"531",3,1,322,"FiveGo","Go",-1.00313614064867,2.50785587169583,2.47712125471966,-0.521523488203784,0,"3",2,-0.242530719330874,0.357,0.126
"532",3,1,344,"FiveGo","Go",-0.988702527114159,2.53655844257153,2.50785587169583,-0.12920338371165,0,"3",3,0.242530719330874,0.357,0.126
"533",3,1,333,"FiveGo","Go",-0.974268913579646,2.52244423350632,2.53655844257153,0.23717813371147,0,"3",4,0.727592157992621,0.357,0.126
"534",3,1,0,"FiveGo","NoGo",-0.959835300045133,0,2.52244423350632,0.0570135987318981,0,"3",5,1.21265359665437,0.357,0.126
"535",3,1,286,"OneGo","Go",-0.945401686510619,2.45636603312904,NA,NA,0,"3",0,-1.21265359665437,0.357,0.126
"536",3,0,276,"OneGo","NoGo",-0.930968072976106,2.44090908206522,2.45636603312904,-0.786458974775907,0,"3",1,-0.727592157992621,0.357,0.126
"537",3,1,326,"ThreeGo","Go",-0.916534459441593,2.51321760006794,2.44090908206522,-0.983763293264387,1,"3",0,-1.21265359665437,0.357,0.126
"538",3,1,356,"ThreeGo","Go",-0.902100845907079,2.55144999797288,2.51321760006794,-0.0607621912661556,0,"3",1,-0.727592157992621,0.357,0.126
"539",3,1,339,"ThreeGo","Go",-0.887667232372566,2.53019969820308,2.55144999797288,0.427265310514029,0,"3",2,-0.242530719330874,0.357,0.126
"540",3,1,0,"ThreeGo","NoGo",-0.873233618838053,0,2.53019969820308,0.156010268271555,0,"3",3,0.242530719330874,0.357,0.126
"541",3,1,267,"ThreeGo","Go",-0.85880000530354,2.42651126136458,NA,NA,0,"3",0,-1.21265359665437,0.357,0.126
"542",3,1,369,"ThreeGo","Go",-0.844366391769026,2.56702636615906,2.42651126136458,-1.16754806358099,0,"3",1,-0.727592157992621,0.357,0.126
"543",3,1,319,"ThreeGo","Go",-0.829932778234513,2.50379068305718,2.56702636615906,0.626093960278826,0,"3",2,-0.242530719330874,0.357,0.126
"544",3,1,0,"ThreeGo","NoGo",-0.8154991647,0,2.50379068305718,-0.181094553617294,0,"3",3,0.242530719330874,0.357,0.126
"545",3,1,375,"OneGo","Go",-0.801065551165487,2.57403126772772,NA,NA,0,"3",0,-1.21265359665437,0.357,0.126
"546",3,1,0,"OneGo","NoGo",-0.786631937630973,0,2.57403126772772,0.71550986930104,0,"3",1,-0.727592157992621,0.357,0.126
"547",3,1,305,"SevenGo","Go",-0.77219832409646,2.48429983934679,NA,NA,0,"3",0,-1.21265359665437,0.357,0.126
"548",3,1,455,"SevenGo","Go",-0.757764710561947,2.65801139665711,2.48429983934679,-0.429890556086723,0,"3",1,-0.727592157992621,0.357,0.126
"549",3,1,508,"SevenGo","Go",-0.743331097027433,2.70586371228392,2.65801139665711,1.78749631970602,0,"3",2,-0.242530719330874,0.357,0.126
"550",3,1,346,"SevenGo","Go",-0.72889748349292,2.53907609879278,2.70586371228392,2.39831979219168,0,"3",3,0.242530719330874,0.357,0.126
"551",3,1,312,"SevenGo","Go",-0.714463869958407,2.49415459401844,2.53907609879278,0.269315418928392,0,"3",4,0.727592157992621,0.357,0.126
"552",3,1,326,"SevenGo","Go",-0.700030256423894,2.51321760006794,2.49415459401844,-0.304096947351535,0,"3",5,1.21265359665437,0.357,0.126
"553",3,1,307,"SevenGo","Go",-0.68559664288938,2.48713837547719,2.51321760006794,-0.0607621912661556,0,"3",6,1.69771503531611,0.357,0.126
"554",3,1,0,"SevenGo","NoGo",-0.671163029354867,0,2.48713837547719,-0.393657314847806,0,"3",7,2.18277647397786,0.357,0.126
"555",3,1,260,"FiveGo","Go",-0.656729415820354,2.41497334797082,NA,NA,0,"3",0,-1.21265359665437,0.357,0.126
"556",3,1,299,"FiveGo","Go",-0.64229580228584,2.47567118832443,2.41497334797082,-1.31482679465386,0,"3",1,-0.727592157992621,0.357,0.126
"557",3,1,352,"FiveGo","Go",-0.627862188751327,2.54654266347813,2.47567118832443,-0.540033242209771,0,"3",2,-0.242530719330874,0.357,0.126
"558",3,1,398,"FiveGo","Go",-0.613428575216814,2.59988307207369,2.54654266347813,0.36462434826449,0,"3",3,0.242530719330874,0.357,0.126
"559",3,1,364,"FiveGo","Go",-0.598994961682301,2.56110138364906,2.59988307207369,1.04550202733525,0,"3",4,0.727592157992621,0.357,0.126
"560",3,0,362,"FiveGo","NoGo",-0.584561348147787,2.55870857053317,2.56110138364906,0.550462962201327,0,"3",5,1.21265359665437,0.357,0.126
"561",3,1,378,"ThreeGo","Go",-0.570127734613274,2.57749179983723,2.55870857053317,0.519919269648268,1,"3",0,-1.21265359665437,0.357,0.126
"562",3,1,343,"ThreeGo","Go",-0.555694121078761,2.53529412004277,2.57749179983723,0.759682741858844,0,"3",1,-0.727592157992621,0.357,0.126
"563",3,1,350,"ThreeGo","Go",-0.541260507544248,2.54406804435028,2.53529412004277,0.221039356157174,0,"3",2,-0.242530719330874,0.357,0.126
"564",3,0,284,"ThreeGo","NoGo",-0.526826894009734,2.45331834004704,2.54406804435028,0.333036421349084,0,"3",3,0.242530719330874,0.357,0.126
"565",3,1,295,"FiveGo","Go",-0.512393280475221,2.46982201597816,2.45331834004704,-0.825362054951502,1,"3",0,-1.21265359665437,0.357,0.126
"566",3,1,284,"FiveGo","Go",-0.497959666940708,2.45331834004704,2.46982201597816,-0.614696541507122,0,"3",1,-0.727592157992621,0.357,0.126
"567",3,1,362,"FiveGo","Go",-0.483526053406195,2.55870857053317,2.45331834004704,-0.825362054951502,0,"3",2,-0.242530719330874,0.357,0.126
"568",3,1,328,"FiveGo","Go",-0.469092439871681,2.51587384371168,2.55870857053317,0.519919269648268,0,"3",3,0.242530719330874,0.357,0.126
"569",3,1,326,"FiveGo","Go",-0.454658826337168,2.51321760006794,2.51587384371168,-0.0268558704333062,0,"3",4,0.727592157992621,0.357,0.126
"570",3,1,0,"FiveGo","NoGo",-0.440225212802655,0,2.51321760006794,-0.0607621912661556,0,"3",5,1.21265359665437,0.357,0.126
"571",3,1,271,"OneGo","Go",-0.425791599268141,2.43296929087441,NA,NA,0,"3",0,-1.21265359665437,0.357,0.126
"572",3,1,0,"OneGo","NoGo",-0.411357985733628,0,2.43296929087441,-1.08511284683258,0,"3",1,-0.727592157992621,0.357,0.126
"573",3,1,336,"SevenGo","Go",-0.396924372199115,2.52633927738984,NA,NA,0,"3",0,-1.21265359665437,0.357,0.126
"574",3,1,294,"SevenGo","Go",-0.382490758664602,2.46834733041216,2.52633927738984,0.106732911146587,0,"3",1,-0.727592157992621,0.357,0.126
"575",3,1,379,"SevenGo","Go",-0.368057145130088,2.57863920996807,2.46834733041216,-0.633520553395564,0,"3",2,-0.242530719330874,0.357,0.126
"576",3,1,281,"SevenGo","Go",-0.353623531595575,2.44870631990508,2.57863920996807,0.774329160350914,0,"3",3,0.242530719330874,0.357,0.126
"577",3,1,263,"SevenGo","Go",-0.339189918061062,2.41995574848976,2.44870631990508,-0.884233399449357,0,"3",4,0.727592157992621,0.357,0.126
"578",3,1,332,"SevenGo","Go",-0.324756304526549,2.52113808370404,2.41995574848976,-1.25122763238912,0,"3",5,1.21265359665437,0.357,0.126
"579",3,1,426,"SevenGo","Go",-0.310322690992035,2.62940959910272,2.52113808370404,0.040340905940238,0,"3",6,1.69771503531611,0.357,0.126
"580",3,0,272,"SevenGo","NoGo",-0.295889077457522,2.4345689040342,2.62940959910272,1.42240114985564,0,"3",7,2.18277647397786,0.357,0.126
"581",3,1,388,"ThreeGo","Go",-0.281455463923009,2.58883172559421,2.4345689040342,-1.06469416380548,1,"3",0,-1.21265359665437,0.357,0.126
"582",3,1,361,"ThreeGo","Go",-0.267021850388496,2.55750720190566,2.58883172559421,0.904434207652638,0,"3",1,-0.727592157992621,0.357,0.126
"583",3,1,295,"ThreeGo","Go",-0.252588236853982,2.46982201597816,2.55750720190566,0.504584083729287,0,"3",2,-0.242530719330874,0.357,0.126
"584",3,1,0,"ThreeGo","NoGo",-0.238154623319469,0,2.46982201597816,-0.614696541507122,0,"3",3,0.242530719330874,0.357,0.126
"585",3,1,544,"OneGo","Go",-0.223721009784956,2.73559889969818,NA,NA,0,"3",0,-1.21265359665437,0.357,0.126
"586",3,0,446,"OneGo","NoGo",-0.209287396250442,2.64933485871214,2.73559889969818,2.77788241509668,0,"3",1,-0.727592157992621,0.357,0.126
"587",3,1,272,"FiveGo","Go",-0.194853782715929,2.4345689040342,2.64933485871214,1.67674236836055,1,"3",0,-1.21265359665437,0.357,0.126
"588",3,1,422,"FiveGo","Go",-0.180420169181416,2.62531245096167,2.4345689040342,-1.06469416380548,0,"3",1,-0.727592157992621,0.357,0.126
"589",3,1,565,"FiveGo","Go",-0.165986555646903,2.75204844781944,2.62531245096167,1.37010202447325,0,"3",2,-0.242530719330874,0.357,0.126
"590",3,1,411,"FiveGo","Go",-0.151552942112389,2.61384182187607,2.75204844781944,2.98785699987139,0,"3",3,0.242530719330874,0.357,0.126
"591",3,1,344,"FiveGo","Go",-0.137119328577876,2.53655844257153,2.61384182187607,1.223682161654,0,"3",4,0.727592157992621,0.357,0.126
"592",3,1,0,"FiveGo","NoGo",-0.122685715043363,0,2.53655844257153,0.23717813371147,0,"3",5,1.21265359665437,0.357,0.126
"593",3,1,273,"SevenGo","Go",-0.10825210150885,2.43616264704076,NA,NA,0,"3",0,-1.21265359665437,0.357,0.126
"594",3,1,351,"SevenGo","Go",-0.0938184879743363,2.54530711646582,2.43616264704076,-1.04435041189369,0,"3",1,-0.727592157992621,0.357,0.126
"595",3,1,364,"SevenGo","Go",-0.079384874439823,2.56110138364906,2.54530711646582,0.348852883360592,0,"3",2,-0.242530719330874,0.357,0.126
"596",3,1,290,"SevenGo","Go",-0.0649512609053097,2.46239799789896,2.56110138364906,0.550462962201327,0,"3",3,0.242530719330874,0.357,0.126
"597",3,1,336,"SevenGo","Go",-0.0505176473707964,2.52633927738984,2.46239799789896,-0.709462373495249,0,"3",4,0.727592157992621,0.357,0.126
"598",3,1,390,"SevenGo","Go",-0.0360840338362832,2.5910646070265,2.52633927738984,0.106732911146587,0,"3",5,1.21265359665437,0.357,0.126
"599",3,1,459,"SevenGo","Go",-0.0216504203017699,2.66181268553726,2.5910646070265,0.932936410153284,0,"3",6,1.69771503531611,0.357,0.126
"600",3,0,409,"SevenGo","NoGo",-0.00721680676725664,2.61172330800734,2.66181268553726,1.8360188717138,0,"3",7,2.18277647397786,0.357,0.126
"601",3,1,301,"SevenGo","Go",0.00721680676725664,2.47856649559384,2.61172330800734,1.19663983400786,1,"3",0,-1.21265359665437,0.357,0.126
"602",3,1,243,"SevenGo","Go",0.0216504203017699,2.38560627359831,2.47856649559384,-0.503075330830805,0,"3",1,-0.727592157992621,0.357,0.126
"603",3,1,432,"SevenGo","Go",0.0360840338362832,2.63548374681491,2.38560627359831,-1.68969054178904,0,"3",2,-0.242530719330874,0.357,0.126
"604",3,1,326,"SevenGo","Go",0.0505176473707964,2.51321760006794,2.63548374681491,1.49993620640099,0,"3",3,0.242530719330874,0.357,0.126
"605",3,1,324,"SevenGo","Go",0.0649512609053097,2.51054501020661,2.51321760006794,-0.0607621912661556,0,"3",4,0.727592157992621,0.357,0.126
"606",3,1,258,"SevenGo","Go",0.079384874439823,2.41161970596323,2.51054501020661,-0.0948771676940242,0,"3",5,1.21265359665437,0.357,0.126
"607",3,1,359,"SevenGo","Go",0.0938184879743363,2.55509444857832,2.41161970596323,-1.35763524038354,0,"3",6,1.69771503531611,0.357,0.126
"608",3,1,0,"SevenGo","NoGo",0.10825210150885,0,2.55509444857832,0.47378585910102,0,"3",7,2.18277647397786,0.357,0.126
"609",3,1,296,"ThreeGo","Go",0.122685715043363,2.47129171105894,NA,NA,0,"3",0,-1.21265359665437,0.357,0.126
"610",3,1,358,"ThreeGo","Go",0.137119328577876,2.55388302664387,2.47129171105894,-0.595936231980235,0,"3",1,-0.727592157992621,0.357,0.126
"611",3,1,331,"ThreeGo","Go",0.151552942112389,2.51982799377572,2.55388302664387,0.458322345100639,0,"3",2,-0.242530719330874,0.357,0.126
"612",3,1,0,"ThreeGo","NoGo",0.165986555646903,0,2.51982799377572,0.023617918373126,0,"3",3,0.242530719330874,0.357,0.126
"613",3,1,245,"FiveGo","Go",0.180420169181416,2.38916608436453,NA,NA,0,"3",0,-1.21265359665437,0.357,0.126
"614",3,1,307,"FiveGo","Go",0.194853782715929,2.48713837547719,2.38916608436453,-1.64425040069802,0,"3",1,-0.727592157992621,0.357,0.126
"615",3,1,408,"FiveGo","Go",0.209287396250442,2.61066016308988,2.48713837547719,-0.393657314847806,0,"3",2,-0.242530719330874,0.357,0.126
"616",3,1,318,"FiveGo","Go",0.223721009784956,2.50242711998443,2.61066016308988,1.18306904100167,0,"3",3,0.242530719330874,0.357,0.126
"617",3,1,348,"FiveGo","Go",0.238154623319469,2.54157924394658,2.50242711998443,-0.198500113204965,0,"3",4,0.727592157992621,0.357,0.126
"618",3,1,0,"FiveGo","NoGo",0.252588236853982,0,2.54157924394658,0.301267473807073,0,"3",5,1.21265359665437,0.357,0.126
"619",3,1,268,"OneGo","Go",0.267021850388496,2.42813479402879,NA,NA,0,"3",0,-1.21265359665437,0.357,0.126
"620",3,1,0,"OneGo","NoGo",0.281455463923009,0,2.42813479402879,-1.14682405374664,0,"3",1,-0.727592157992621,0.357,0.126
"621",3,1,374,"SevenGo","Go",0.295889077457522,2.57287160220048,NA,NA,0,"3",0,-1.21265359665437,0.357,0.126
"622",3,1,316,"SevenGo","Go",0.310322690992035,2.4996870826184,2.57287160220048,0.700707013577293,0,"3",1,-0.727592157992621,0.357,0.126
"623",3,1,313,"SevenGo","Go",0.324756304526549,2.49554433754645,2.4996870826184,-0.233476041051625,0,"3",2,-0.242530719330874,0.357,0.126
"624",3,1,351,"SevenGo","Go",0.339189918061062,2.54530711646582,2.49554433754645,-0.286357200454775,0,"3",3,0.242530719330874,0.357,0.126
"625",3,1,485,"SevenGo","Go",0.353623531595575,2.68574173860226,2.54530711646582,0.348852883360592,0,"3",4,0.727592157992621,0.357,0.126
"626",3,1,403,"SevenGo","Go",0.368057145130088,2.60530504614111,2.68574173860226,2.14146756515733,0,"3",5,1.21265359665437,0.357,0.126
"627",3,1,424,"SevenGo","Go",0.382490758664602,2.62736585659273,2.60530504614111,1.11471224180882,0,"3",6,1.69771503531611,0.357,0.126
"628",3,1,0,"SevenGo","NoGo",0.396924372199115,0,2.62736585659273,1.39631326089005,0,"3",7,2.18277647397786,0.357,0.126
"629",3,1,249,"FiveGo","Go",0.411357985733628,2.39619934709574,NA,NA,0,"3",0,-1.21265359665437,0.357,0.126
"630",3,1,520,"FiveGo","Go",0.425791599268141,2.7160033436348,2.39619934709574,-1.55447246815478,0,"3",1,-0.727592157992621,0.357,0.126
"631",3,1,285,"FiveGo","Go",0.440225212802655,2.45484486000851,2.7160033436348,2.5277497842483,0,"3",2,-0.242530719330874,0.357,0.126
"632",3,1,259,"FiveGo","Go",0.454658826337168,2.41329976408125,2.45484486000851,-0.805876389284752,0,"3",3,0.242530719330874,0.357,0.126
"633",3,1,265,"FiveGo","Go",0.469092439871681,2.42324587393681,2.41329976408125,-1.33618969652251,0,"3",4,0.727592157992621,0.357,0.126
"634",3,1,0,"FiveGo","NoGo",0.483526053406195,0,2.42324587393681,-1.20922996050729,0,"3",5,1.21265359665437,0.357,0.126
"635",3,1,297,"OneGo","Go",0.497959666940708,2.47275644931721,NA,NA,0,"3",0,-1.21265359665437,0.357,0.126
"636",3,1,0,"OneGo","NoGo",0.512393280475221,0,2.47275644931721,-0.577239195118391,0,"3",1,-0.727592157992621,0.357,0.126
"637",3,1,250,"ThreeGo","Go",0.526826894009734,2.39794000867204,NA,NA,0,"3",0,-1.21265359665437,0.357,0.126
"638",3,1,576,"ThreeGo","Go",0.541260507544248,2.76042248342321,2.39794000867204,-1.53225333550611,0,"3",1,-0.727592157992621,0.357,0.126
"639",3,1,454,"ThreeGo","Go",0.555694121078761,2.6570558528571,2.76042248342321,3.09474958049601,0,"3",2,-0.242530719330874,0.357,0.126
"640",3,1,0,"ThreeGo","NoGo",0.570127734613274,0,2.6570558528571,1.77529902947275,0,"3",3,0.242530719330874,0.357,0.126
"641",3,1,NA,"OneGo","Go",0.584561348147787,NA,NA,NA,0,"3",0,-1.21265359665437,0.357,0.126
"642",3,0,322,"OneGo","NoGo",0.598994961682301,2.50785587169583,NA,NA,0,"3",1,-0.727592157992621,0.357,0.126
"643",3,1,310,"FiveGo","Go",0.613428575216814,2.49136169383427,2.50785587169583,-0.12920338371165,1,"3",0,-1.21265359665437,0.357,0.126
"644",3,1,292,"FiveGo","Go",0.627862188751327,2.46538285144842,2.49136169383427,-0.339747656548247,0,"3",1,-0.727592157992621,0.357,0.126
"645",3,1,313,"FiveGo","Go",0.64229580228584,2.49554433754645,2.46538285144842,-0.671361425065475,0,"3",2,-0.242530719330874,0.357,0.126
"646",3,1,271,"FiveGo","Go",0.656729415820354,2.43296929087441,2.49554433754645,-0.286357200454775,0,"3",3,0.242530719330874,0.357,0.126
"647",3,1,285,"FiveGo","Go",0.671163029354867,2.45484486000851,2.43296929087441,-1.08511284683258,0,"3",4,0.727592157992621,0.357,0.126
"648",3,0,227,"FiveGo","NoGo",0.68559664288938,2.35602585719312,2.45484486000851,-0.805876389284752,0,"3",5,1.21265359665437,0.357,0.126
"649",3,1,477,"ThreeGo","Go",0.700030256423894,2.67851837904011,2.35602585719312,-2.06727754942941,1,"3",0,-1.21265359665437,0.357,0.126
"650",3,1,307,"ThreeGo","Go",0.714463869958407,2.48713837547719,2.67851837904011,2.04926309160218,0,"3",1,-0.727592157992621,0.357,0.126
"651",3,1,273,"ThreeGo","Go",0.72889748349292,2.43616264704076,2.48713837547719,-0.393657314847806,0,"3",2,-0.242530719330874,0.357,0.126
"652",3,1,0,"ThreeGo","NoGo",0.743331097027433,0,2.43616264704076,-1.04435041189369,0,"3",3,0.242530719330874,0.357,0.126
"653",3,1,250,"SevenGo","Go",0.757764710561947,2.39794000867204,NA,NA,0,"3",0,-1.21265359665437,0.357,0.126
"654",3,1,320,"SevenGo","Go",0.77219832409646,2.50514997831991,2.39794000867204,-1.53225333550611,0,"3",1,-0.727592157992621,0.357,0.126
"655",3,1,318,"SevenGo","Go",0.786631937630973,2.50242711998443,2.50514997831991,-0.163743471613465,0,"3",2,-0.242530719330874,0.357,0.126
"656",3,1,308,"SevenGo","Go",0.801065551165487,2.48855071650044,2.50242711998443,-0.198500113204965,0,"3",3,0.242530719330874,0.357,0.126
"657",3,1,281,"SevenGo","Go",0.8154991647,2.44870631990508,2.48855071650044,-0.375629116277786,0,"3",4,0.727592157992621,0.357,0.126
"658",3,1,255,"SevenGo","Go",0.829932778234513,2.40654018043396,2.44870631990508,-0.884233399449357,0,"3",5,1.21265359665437,0.357,0.126
"659",3,1,253,"SevenGo","Go",0.844366391769026,2.40312052117582,2.40654018043396,-1.42247418039567,0,"3",6,1.69771503531611,0.357,0.126
"660",3,0,299,"SevenGo","NoGo",0.85880000530354,2.47567118832443,2.40312052117582,-1.46612532068875,0,"3",7,2.18277647397786,0.357,0.126
"661",3,1,277,"SevenGo","Go",0.873233618838053,2.44247976906445,2.47567118832443,-0.540033242209771,1,"3",0,-1.21265359665437,0.357,0.126
"662",3,1,291,"SevenGo","Go",0.887667232372566,2.46389298898591,2.44247976906445,-0.963713845824059,0,"3",1,-0.727592157992621,0.357,0.126
"663",3,1,329,"SevenGo","Go",0.902100845907079,2.51719589794997,2.46389298898591,-0.690379166442375,0,"3",2,-0.242530719330874,0.357,0.126
"664",3,1,287,"SevenGo","Go",0.916534459441593,2.45788189673399,2.51719589794997,-0.00998016128383763,0,"3",3,0.242530719330874,0.357,0.126
"665",3,1,302,"SevenGo","Go",0.930968072976106,2.48000694295715,2.45788189673399,-0.767109334975581,0,"3",4,0.727592157992621,0.357,0.126
"666",3,1,355,"SevenGo","Go",0.945401686510619,2.55022835305509,2.48000694295715,-0.484688361488471,0,"3",5,1.21265359665437,0.357,0.126
"667",3,1,321,"SevenGo","Go",0.959835300045133,2.50650503240487,2.55022835305509,0.411671302553192,0,"3",6,1.69771503531611,0.357,0.126
"668",3,1,0,"SevenGo","NoGo",0.974268913579646,0,2.50650503240487,-0.146446527239104,0,"3",7,2.18277647397786,0.357,0.126
"669",3,1,257,"OneGo","Go",0.988702527114159,2.40993312333129,NA,NA,0,"3",0,-1.21265359665437,0.357,0.126
"670",3,1,0,"OneGo","NoGo",1.00313614064867,0,2.40993312333129,-1.37916406811907,0,"3",1,-0.727592157992621,0.357,0.126
"671",3,1,322,"ThreeGo","Go",1.01756975418319,2.50785587169583,NA,NA,0,"3",0,-1.21265359665437,0.357,0.126
"672",3,1,321,"ThreeGo","Go",1.0320033677177,2.50650503240487,2.50785587169583,-0.12920338371165,0,"3",1,-0.727592157992621,0.357,0.126
"673",3,1,302,"ThreeGo","Go",1.04643698125221,2.48000694295715,2.50650503240487,-0.146446527239104,0,"3",2,-0.242530719330874,0.357,0.126
"674",3,1,0,"ThreeGo","NoGo",1.06087059478673,0,2.48000694295715,-0.484688361488471,0,"3",3,0.242530719330874,0.357,0.126
"675",3,1,295,"FiveGo","Go",1.07530420832124,2.46982201597816,NA,NA,0,"3",0,-1.21265359665437,0.357,0.126
"676",3,1,405,"FiveGo","Go",1.08973782185575,2.60745502321467,2.46982201597816,-0.614696541507122,0,"3",1,-0.727592157992621,0.357,0.126
"677",3,1,298,"FiveGo","Go",1.10417143539027,2.47421626407626,2.60745502321467,1.1421561898108,0,"3",2,-0.242530719330874,0.357,0.126
"678",3,1,352,"FiveGo","Go",1.11860504892478,2.54654266347813,2.47421626407626,-0.558605005557683,0,"3",3,0.242530719330874,0.357,0.126
"679",3,1,374,"FiveGo","Go",1.13303866245929,2.57287160220048,2.54654266347813,0.36462434826449,0,"3",4,0.727592157992621,0.357,0.126
"680",3,1,0,"FiveGo","NoGo",1.1474722759938,0,2.57287160220048,0.700707013577293,0,"3",5,1.21265359665437,0.357,0.126
"681",3,1,278,"ThreeGo","Go",1.16190588952832,2.44404479591808,NA,NA,0,"3",0,-1.21265359665437,0.357,0.126
"682",3,1,285,"ThreeGo","Go",1.17633950306283,2.45484486000851,2.44404479591808,-0.94373664880139,0,"3",1,-0.727592157992621,0.357,0.126
"683",3,1,459,"ThreeGo","Go",1.19077311659734,2.66181268553726,2.45484486000851,-0.805876389284752,0,"3",2,-0.242530719330874,0.357,0.126
"684",3,1,0,"ThreeGo","NoGo",1.20520673013186,0,2.66181268553726,1.8360188717138,0,"3",3,0.242530719330874,0.357,0.126
"685",3,1,283,"FiveGo","Go",1.21964034366637,2.45178643552429,NA,NA,0,"3",0,-1.21265359665437,0.357,0.126
"686",3,1,329,"FiveGo","Go",1.23407395720088,2.51719589794997,2.45178643552429,-0.844916453267356,0,"3",1,-0.727592157992621,0.357,0.126
"687",3,1,271,"FiveGo","Go",1.2485075707354,2.43296929087441,2.51719589794997,-0.00998016128383763,0,"3",2,-0.242530719330874,0.357,0.126
"688",3,1,405,"FiveGo","Go",1.26294118426991,2.60745502321467,2.43296929087441,-1.08511284683258,0,"3",3,0.242530719330874,0.357,0.126
"689",3,1,322,"FiveGo","Go",1.27737479780442,2.50785587169583,2.60745502321467,1.1421561898108,0,"3",4,0.727592157992621,0.357,0.126
"690",3,1,0,"FiveGo","NoGo",1.29180841133894,0,2.50785587169583,-0.12920338371165,0,"3",5,1.21265359665437,0.357,0.126
"691",3,1,284,"OneGo","Go",1.30624202487345,2.45331834004704,NA,NA,0,"3",0,-1.21265359665437,0.357,0.126
"692",3,1,0,"OneGo","NoGo",1.32067563840796,0,2.45331834004704,-0.825362054951502,0,"3",1,-0.727592157992621,0.357,0.126
"693",3,1,404,"SevenGo","Go",1.33510925194248,2.60638136511061,NA,NA,0,"3",0,-1.21265359665437,0.357,0.126
"694",3,1,306,"SevenGo","Go",1.34954286547699,2.48572142648158,2.60638136511061,1.12845119846829,0,"3",1,-0.727592157992621,0.357,0.126
"695",3,1,352,"SevenGo","Go",1.3639764790115,2.54654266347813,2.48572142648158,-0.411744333093347,0,"3",2,-0.242530719330874,0.357,0.126
"696",3,1,270,"SevenGo","Go",1.37841009254602,2.43136376415899,2.54654266347813,0.36462434826449,0,"3",3,0.242530719330874,0.357,0.126
"697",3,1,315,"SevenGo","Go",1.39284370608053,2.4983105537896,2.43136376415899,-1.10560701499635,0,"3",4,0.727592157992621,0.357,0.126
"698",3,1,337,"SevenGo","Go",1.40727731961504,2.52762990087134,2.4983105537896,-0.251047105443608,0,"3",5,1.21265359665437,0.357,0.126
"699",3,1,287,"SevenGo","Go",1.42171093314956,2.45788189673399,2.52762990087134,0.123207414131757,0,"3",6,1.69771503531611,0.357,0.126
"700",3,1,0,"SevenGo","NoGo",1.43614454668407,0,2.45788189673399,-0.767109334975581,0,"3",7,2.18277647397786,0.357,0.126
"701",3,1,312,"FiveGo","Go",1.45057816021858,2.49415459401844,NA,NA,0,"3",0,-1.21265359665437,0.357,0.126
"702",3,1,334,"FiveGo","Go",1.4650117737531,2.52374646681156,2.49415459401844,-0.304096947351535,0,"3",1,-0.727592157992621,0.357,0.126
"703",3,1,324,"FiveGo","Go",1.47944538728761,2.51054501020661,2.52374646681156,0.0736362983666776,0,"3",2,-0.242530719330874,0.357,0.126
"704",3,1,458,"FiveGo","Go",1.49387900082212,2.66086547800387,2.51054501020661,-0.0948771676940242,0,"3",3,0.242530719330874,0.357,0.126
"705",3,1,303,"FiveGo","Go",1.50831261435664,2.4814426285023,2.66086547800387,1.82392799194902,0,"3",4,0.727592157992621,0.357,0.126
"706",3,1,0,"FiveGo","NoGo",1.52274622789115,0,2.4814426285023,-0.466362175626849,0,"3",5,1.21265359665437,0.357,0.126
"707",3,1,224,"SevenGo","Go",1.53717984142566,2.35024801833416,NA,NA,0,"3",0,-1.21265359665437,0.357,0.126
"708",3,1,254,"SevenGo","Go",1.55161345496018,2.40483371661994,2.35024801833416,-2.14103029366056,0,"3",1,-0.727592157992621,0.357,0.126
"709",3,1,211,"SevenGo","Go",1.56604706849469,2.32428245529769,2.40483371661994,-1.44425678671048,0,"3",2,-0.242530719330874,0.357,0.126
"710",3,1,417,"SevenGo","Go",1.5804806820292,2.62013605497376,2.32428245529769,-2.47247455442891,0,"3",3,0.242530719330874,0.357,0.126
"711",3,1,351,"SevenGo","Go",1.59491429556372,2.54530711646582,2.62013605497376,1.30402655600575,0,"3",4,0.727592157992621,0.357,0.126
"712",3,1,253,"SevenGo","Go",1.60934790909823,2.40312052117582,2.54530711646582,0.348852883360592,0,"3",5,1.21265359665437,0.357,0.126
"713",3,1,354,"SevenGo","Go",1.62378152263274,2.54900326202579,2.40312052117582,-1.46612532068875,0,"3",6,1.69771503531611,0.357,0.126
"714",3,0,408,"SevenGo","NoGo",1.63821513616726,2.61066016308988,2.54900326202579,0.39603330579533,0,"3",7,2.18277647397786,0.357,0.126
"715",3,1,300,"ThreeGo","Go",1.65264874970177,2.47712125471966,2.61066016308988,1.18306904100167,1,"3",0,-1.21265359665437,0.357,0.126
"716",3,1,242,"ThreeGo","Go",1.66708236323628,2.38381536598043,2.47712125471966,-0.521523488203784,0,"3",1,-0.727592157992621,0.357,0.126
"717",3,1,279,"ThreeGo","Go",1.6815159767708,2.4456042032736,2.38381536598043,-1.71255105325489,0,"3",2,-0.242530719330874,0.357,0.126
"718",3,1,0,"ThreeGo","NoGo",1.69594959030531,0,2.4456042032736,-0.923831183340808,0,"3",3,0.242530719330874,0.357,0.126
"719",3,1,296,"OneGo","Go",1.71038320383982,2.47129171105894,NA,NA,0,"3",0,-1.21265359665437,0.357,0.126
"720",3,0,302,"OneGo","NoGo",1.72481681737434,2.48000694295715,2.47129171105894,-0.595936231980235,0,"3",1,-0.727592157992621,0.357,0.126
"721",4,1,412,"SevenGo","Go",-1.72481681737434,2.61489721603313,NA,NA,NA,"4",0,-1.21265359665437,0.443,0.411
"722",4,1,354,"SevenGo","Go",-1.71038320383982,2.54900326202579,2.61489721603313,1.91945497571345,0,"4",1,-0.727592157992621,0.443,0.411
"723",4,1,352,"SevenGo","Go",-1.69594959030531,2.54654266347813,2.54900326202579,0.694383786534276,0,"4",2,-0.242530719330874,0.443,0.411
"724",4,1,326,"SevenGo","Go",-1.6815159767708,2.51321760006794,2.54654266347813,0.648637428855716,0,"4",3,0.242530719330874,0.443,0.411
"725",4,1,363,"SevenGo","Go",-1.66708236323628,2.55990662503611,2.51321760006794,0.0290726193612785,0,"4",4,0.727592157992621,0.443,0.411
"726",4,1,345,"SevenGo","Go",-1.65264874970177,2.53781909507327,2.55990662503611,0.897094279330284,0,"4",5,1.21265359665437,0.443,0.411
"727",4,1,383,"SevenGo","Go",-1.63821513616726,2.58319877396862,2.53781909507327,0.486452711295177,0,"4",6,1.69771503531611,0.443,0.411
"728",4,1,0,"SevenGo","NoGo",-1.62378152263274,0,2.58319877396862,1.33013158937105,0,"4",7,2.18277647397786,0.443,0.411
"729",4,1,327,"OneGo","Go",-1.60934790909823,2.51454775266029,NA,NA,0,"4",0,-1.21265359665437,0.443,0.411
"730",4,1,0,"OneGo","NoGo",-1.59491429556372,0,2.51454775266029,0.0538022268442144,0,"4",1,-0.727592157992621,0.443,0.411
"731",4,1,377,"ThreeGo","Go",-1.5804806820292,2.57634135020579,NA,NA,0,"4",0,-1.21265359665437,0.443,0.411
"732",4,1,447,"ThreeGo","Go",-1.56604706849469,2.65030752313194,2.57634135020579,1.20264140593328,0,"4",1,-0.727592157992621,0.443,0.411
"733",4,1,331,"ThreeGo","Go",-1.55161345496018,2.51982799377572,2.65030752313194,2.57778771170175,0,"4",2,-0.242530719330874,0.443,0.411
"734",4,0,322,"ThreeGo","NoGo",-1.53717984142566,2.50785587169583,2.51982799377572,0.151970129497504,0,"4",3,0.242530719330874,0.443,0.411
"735",4,1,341,"FiveGo","Go",-1.52274622789115,2.5327543789925,2.50785587169583,-0.0706102582536347,1,"4",0,-1.21265359665437,0.443,0.411
"736",4,1,363,"FiveGo","Go",-1.50831261435664,2.55990662503611,2.5327543789925,0.392291754567155,0,"4",1,-0.727592157992621,0.443,0.411
"737",4,1,337,"FiveGo","Go",-1.49387900082212,2.52762990087134,2.55990662503611,0.897094279330284,0,"4",2,-0.242530719330874,0.443,0.411
"738",4,1,382,"FiveGo","Go",-1.47944538728761,2.58206336291171,2.52762990087134,0.297019728470295,0,"4",3,0.242530719330874,0.443,0.411
"739",4,1,348,"FiveGo","Go",-1.4650117737531,2.54157924394658,2.58206336291171,1.30902253020696,0,"4",4,0.727592157992621,0.443,0.411
"740",4,0,306,"FiveGo","NoGo",-1.45057816021858,2.48572142648158,2.54157924394658,0.556359732676886,0,"4",5,1.21265359665437,0.443,0.411
"741",4,1,366,"ThreeGo","Go",-1.43614454668407,2.56348108539441,2.48572142648158,-0.482124053850446,1,"4",0,-1.21265359665437,0.443,0.411
"742",4,1,379,"ThreeGo","Go",-1.42171093314956,2.57863920996807,2.56348108539441,0.963549062136738,0,"4",1,-0.727592157992621,0.443,0.411
"743",4,1,313,"ThreeGo","Go",-1.40727731961504,2.49554433754645,2.57863920996807,1.24536219623871,0,"4",2,-0.242530719330874,0.443,0.411
"744",4,1,0,"ThreeGo","NoGo",-1.39284370608053,0,2.49554433754645,-0.29950084477574,0,"4",3,0.242530719330874,0.443,0.411
"745",4,1,346,"SevenGo","Go",-1.37841009254602,2.53907609879278,NA,NA,0,"4",0,-1.21265359665437,0.443,0.411
"746",4,1,367,"SevenGo","Go",-1.3639764790115,2.56466606425209,2.53907609879278,0.50982236735332,0,"4",1,-0.727592157992621,0.443,0.411
"747",4,1,349,"SevenGo","Go",-1.34954286547699,2.54282542695918,2.56466606425209,0.985579663884641,0,"4",2,-0.242530719330874,0.443,0.411
"748",4,1,347,"SevenGo","Go",-1.33510925194248,2.54032947479087,2.54282542695918,0.579528214947825,0,"4",3,0.242530719330874,0.443,0.411
"749",4,1,345,"SevenGo","Go",-1.32067563840796,2.53781909507327,2.54032947479087,0.533124578422608,0,"4",4,0.727592157992621,0.443,0.411
"750",4,1,326,"SevenGo","Go",-1.30624202487345,2.51321760006794,2.53781909507327,0.486452711295177,0,"4",5,1.21265359665437,0.443,0.411
"751",4,1,396,"SevenGo","Go",-1.29180841133894,2.59769518592551,2.51321760006794,0.0290726193612785,0,"4",6,1.69771503531611,0.443,0.411
"752",4,1,0,"SevenGo","NoGo",-1.27737479780442,0,2.59769518592551,1.59964245576829,0,"4",7,2.18277647397786,0.443,0.411
"753",4,1,358,"OneGo","Go",-1.26294118426991,2.55388302664387,NA,NA,0,"4",0,-1.21265359665437,0.443,0.411
"754",4,1,0,"OneGo","NoGo",-1.2485075707354,0,2.55388302664387,0.785106207637131,0,"4",1,-0.727592157992621,0.443,0.411
"755",4,1,390,"FiveGo","Go",-1.23407395720088,2.5910646070265,NA,NA,0,"4",0,-1.21265359665437,0.443,0.411
"756",4,1,380,"FiveGo","Go",-1.21964034366637,2.57978359661681,2.5910646070265,1.47636967150265,0,"4",1,-0.727592157992621,0.443,0.411
"757",4,1,346,"FiveGo","Go",-1.20520673013186,2.53907609879278,2.57978359661681,1.26663812562817,0,"4",2,-0.242530719330874,0.443,0.411
"758",4,1,351,"FiveGo","Go",-1.19077311659734,2.54530711646582,2.53907609879278,0.50982236735332,0,"4",3,0.242530719330874,0.443,0.411
"759",4,1,333,"FiveGo","Go",-1.17633950306283,2.52244423350632,2.54530711646582,0.625666686388376,0,"4",4,0.727592157992621,0.443,0.411
"760",4,1,0,"FiveGo","NoGo",-1.16190588952832,0,2.52244423350632,0.200610099070234,0,"4",5,1.21265359665437,0.443,0.411
"761",4,1,326,"SevenGo","Go",-1.1474722759938,2.51321760006794,NA,NA,0,"4",0,-1.21265359665437,0.443,0.411
"762",4,1,340,"SevenGo","Go",-1.13303866245929,2.53147891704225,2.51321760006794,0.0290726193612785,0,"4",1,-0.727592157992621,0.443,0.411
"763",4,1,362,"SevenGo","Go",-1.11860504892478,2.55870857053317,2.53147891704225,0.368578931263643,0,"4",2,-0.242530719330874,0.443,0.411
"764",4,1,384,"SevenGo","Go",-1.10417143539027,2.58433122436753,2.55870857053317,0.874820580980733,0,"4",3,0.242530719330874,0.443,0.411
"765",4,1,310,"SevenGo","Go",-1.08973782185575,2.49136169383427,2.58433122436753,1.35118560529373,0,"4",4,0.727592157992621,0.443,0.411
"766",4,1,323,"SevenGo","Go",-1.07530420832124,2.5092025223311,2.49136169383427,-0.377262702955059,0,"4",5,1.21265359665437,0.443,0.411
