"subj_idx","response","rt","stim","cond","trial_z","trial","rt_log_trim_grp","prev_rt"
1,1,1.366,"negative_unfamiliar","no_conflict",-1.61500423500076,1,3.13545069934551,NA
1,1,0.757,"positive","no_conflict",-1.56689772587308,2,2.87909587950007,1.366
1,1,1.028,"negative_rc","conflict",-1.5187912167454,3,3.01199311465926,0.757
1,1,0.9,"positive","no_conflict",-1.47068470761772,4,2.95424250943932,1.028
1,1,NA,"negative_highly_familiar","conflict",-1.42257819849003,5,NA,0.9
1,1,1.282,"positive","no_conflict",-1.37447168936235,6,3.1078880251828,1.739
1,1,NA,"negative_familiar","conflict",-1.32636518023467,7,NA,1.282
1,1,0.952,"positive","no_conflict",-1.27825867110699,8,2.97863694838447,1.729
1,1,1.063,"positive","no_conflict",-1.2301521619793,9,3.0265332645233,0.952
1,1,0.982,"negative_rc","conflict",-1.18204565285162,10,2.99211148778695,1.063
1,1,1.237,"negative_familiar","conflict",-1.13393914372394,11,3.09236969962912,0.982
1,1,1.309,"positive","no_conflict",-1.08583263459626,12,3.11693964655076,1.237
1,1,NA,"positive","no_conflict",-1.03772612546857,13,NA,1.309
1,1,0.851,"negative_rc","conflict",-0.989619616340893,14,2.92992956008459,2.148
1,1,0.938,"negative_highly_familiar","conflict",-0.94151310721321,15,2.97220283837906,0.851
1,1,1.057,"positive","no_conflict",-0.893406598085528,16,3.02407498730743,0.938
1,0,1.04,"positive","no_conflict",-0.845300088957846,17,3.01703333929878,1.057
1,1,0.999,"negative_unfamiliar","no_conflict",-0.797193579830163,18,2.99956548822598,1.04
1,1,0.791,"positive","no_conflict",-0.749087070702481,19,2.89817648349768,0.999
1,1,0.638,"negative_highly_familiar","conflict",-0.700980561574799,20,2.80482067872116,0.791
1,1,0.877,"positive","no_conflict",-0.652874052447117,21,2.94299959336604,0.638
1,1,0.924,"negative_familiar","conflict",-0.604767543319434,22,2.96567197122011,0.877
1,NA,NA,"negative_unfamiliar","no_conflict",-0.556661034191752,23,NA,0.924
1,1,1.378,"positive","no_conflict",-0.50855452506407,24,3.13924921757161,NA
1,1,1.593,"negative_highly_familiar","conflict",-0.460448015936387,25,3.20221577580113,1.378
1,1,0.92,"positive","no_conflict",-0.412341506808705,26,2.96378782734556,1.593
1,1,0.92,"negative_familiar","conflict",-0.364234997681023,27,2.96378782734556,0.92
1,0,0.927,"positive","no_conflict",-0.316128488553341,28,2.9670797341445,0.92
1,1,1.55,"positive","no_conflict",-0.268021979425658,29,3.19033169817029,0.927
1,1,1.197,"negative_rc","conflict",-0.219915470297976,30,3.07809415040641,1.55
1,1,0.772,"positive","no_conflict",-0.171808961170294,31,2.88761730033574,1.197
1,1,1.267,"negative_highly_familiar","conflict",-0.123702452042611,32,3.10277661488344,0.772
1,1,0.642,"positive","no_conflict",-0.0755959429149292,33,2.80753502806885,1.267
1,1,1.05,"negative_unfamiliar","no_conflict",-0.0274894337872469,34,3.02118929906994,0.642
1,1,1.313,"positive","no_conflict",0.0206170753404354,35,3.11826472608948,1.05
1,1,1.064,"negative_unfamiliar","no_conflict",0.0687235844681176,36,3.02694162795903,1.313
1,0,0.855,"positive","no_conflict",0.1168300935958,37,2.93196611472817,1.064
1,0,0.982,"negative_rc","conflict",0.164936602723482,38,2.99211148778695,0.855
1,1,1.133,"negative_highly_familiar","conflict",0.213043111851164,39,3.0542299098634,0.982
1,1,1.22,"positive","no_conflict",0.261149620978847,40,3.08635983067475,1.133
1,1,0.731,"positive","no_conflict",0.309256130106529,41,2.86391737695786,1.22
1,1,1.363,"negative_familiar","conflict",0.357362639234211,42,3.13449585583467,0.731
1,1,0.683,"negative_unfamiliar","no_conflict",0.405469148361894,43,2.83442070368153,1.363
1,1,0.969,"positive","no_conflict",0.453575657489576,44,2.98632377705077,0.683
1,1,1.256,"positive","no_conflict",0.501682166617258,45,3.09898963940118,0.969
1,0,NA,"negative_rc","conflict",0.54978867574494,46,NA,1.256
1,1,0.751,"positive","no_conflict",0.597895184872623,47,2.87563993700417,1.823
1,1,0.91,"negative_familiar","conflict",0.646001694000305,48,2.95904139232109,0.751
1,1,0.841,"negative_unfamiliar","no_conflict",0.694108203127987,49,2.92479599579791,0.91
1,0,1.057,"positive","no_conflict",0.74221471225567,50,3.02407498730743,0.841
1,1,1.464,"positive","no_conflict",0.790321221383352,51,3.16554107672237,1.057
1,1,0.831,"negative_highly_familiar","conflict",0.838427730511034,52,2.91960102378411,1.464
1,1,1.038,"negative_familiar","conflict",0.886534239638716,53,3.01619735351244,0.831
1,1,1.525,"positive","no_conflict",0.934640748766399,54,3.1832698436828,1.038
1,0,1.444,"positive","no_conflict",0.982747257894081,55,3.15956719323362,1.525
1,1,1.483,"negative_rc","conflict",1.03085376702176,56,3.17114115102838,1.444
1,0,1.355,"positive","no_conflict",1.07896027614945,57,3.13193929521042,1.483
1,1,1.05,"negative_rc","conflict",1.12706678527713,58,3.02118929906994,1.355
1,1,1.361,"positive","no_conflict",1.17517329440481,59,3.13385812520333,1.05
1,1,0.856,"negative_highly_familiar","conflict",1.22327980353249,60,2.93247376467715,1.361
1,1,0.831,"positive","no_conflict",1.27138631266017,61,2.91960102378411,0.856
1,1,1.19,"negative_highly_familiar","conflict",1.31949282178786,62,3.07554696139253,0.831
1,1,NA,"negative_familiar","conflict",1.36759933091554,63,NA,1.19
1,1,0.644,"positive","no_conflict",1.41570584004322,64,2.80888586735981,1.877
1,1,1.172,"negative_unfamiliar","no_conflict",1.4638123491709,65,3.06892761168207,0.644
1,1,1.619,"positive","no_conflict",1.51191885829859,66,3.20924684875337,1.172
1,1,1.05,"negative_rc","conflict",1.56002536742627,67,3.02118929906994,1.619
1,1,1.329,"positive","no_conflict",1.60813187655395,68,3.12352498094273,1.05
1,1,0.784,"positive","no_conflict",1.65623838568163,69,2.89431606268444,1.329
1,1,1.399,"negative_familiar","conflict",1.70434489480932,70,3.14581771449183,0.784
1,1,1.238,"negative_unfamiliar","no_conflict",1.752451403937,71,3.0927206446841,1.399
1,1,1.141,"positive","no_conflict",1.80055791306468,72,3.05728564441821,1.238
2,1,0.534,"negative_unfamiliar","no_conflict",-1.61500423500076,1,2.72754125702856,1.141
2,0,0.854,"positive","no_conflict",-1.56689772587308,2,2.931457870689,0.534
2,1,0.573,"negative_rc","conflict",-1.5187912167454,3,2.75815462196739,0.854
2,1,1.124,"positive","no_conflict",-1.47068470761772,4,3.05076631123304,0.573
2,1,1.003,"negative_highly_familiar","conflict",-1.42257819849003,5,3.00130093302042,1.124
2,1,0.762,"positive","no_conflict",-1.37447168936235,6,2.8819549713396,1.003
2,1,0.625,"negative_familiar","conflict",-1.32636518023467,7,2.79588001734408,0.762
2,1,0.696,"positive","no_conflict",-1.27825867110699,8,2.84260923961056,0.625
2,1,0.903,"positive","no_conflict",-1.2301521619793,9,2.95568775031351,0.696
2,1,0.767,"negative_rc","conflict",-1.18204565285162,10,2.88479536394898,0.903
2,1,0.63,"negative_familiar","conflict",-1.13393914372394,11,2.79934054945358,0.767
2,1,0.813,"positive","no_conflict",-1.08583263459626,12,2.91009054559407,0.63
2,1,0.796,"positive","no_conflict",-1.03772612546857,13,2.90091306773767,0.813
2,1,1.019,"negative_rc","conflict",-0.989619616340893,14,3.00817418400643,0.796
2,1,0.675,"negative_highly_familiar","conflict",-0.94151310721321,15,2.82930377283102,1.019
2,1,0.785,"positive","no_conflict",-0.893406598085528,16,2.89486965674525,0.675
2,1,1.009,"positive","no_conflict",-0.845300088957846,17,3.00389116623691,0.785
2,1,0.809,"negative_unfamiliar","no_conflict",-0.797193579830163,18,2.90794852161227,1.009
2,1,0.952,"positive","no_conflict",-0.749087070702481,19,2.97863694838447,0.809
2,0,1.39,"negative_highly_familiar","conflict",-0.700980561574799,20,3.14301480025409,0.952
2,1,0.678,"positive","no_conflict",-0.652874052447117,21,2.83122969386706,1.39
2,1,0.973,"negative_familiar","conflict",-0.604767543319434,22,2.98811284026835,0.678
2,1,0.74,"negative_unfamiliar","no_conflict",-0.556661034191752,23,2.86923171973098,0.973
2,1,0.715,"positive","no_conflict",-0.50855452506407,24,2.85430604180108,0.74
2,1,0.915,"negative_highly_familiar","conflict",-0.460448015936387,25,2.96142109406645,0.715
2,1,1.514,"positive","no_conflict",-0.412341506808705,26,3.18012587516405,0.915
2,1,0.993,"negative_familiar","conflict",-0.364234997681023,27,2.99694924849538,1.514
2,1,0.712,"positive","no_conflict",-0.316128488553341,28,2.85247999363686,0.993
2,1,1.055,"positive","no_conflict",-0.268021979425658,29,3.02325245963371,0.712
2,1,0.734,"negative_rc","conflict",-0.219915470297976,30,2.86569605991607,1.055
2,1,1.077,"positive","no_conflict",-0.171808961170294,31,3.03221570329798,0.734
2,1,0.996,"negative_highly_familiar","conflict",-0.123702452042611,32,2.9982593384237,1.077
2,0,0.9,"positive","no_conflict",-0.0755959429149292,33,2.95424250943932,0.996
2,1,0.803,"negative_unfamiliar","no_conflict",-0.0274894337872469,34,2.90471554527868,0.9
2,1,1.002,"positive","no_conflict",0.0206170753404354,35,3.00086772153123,0.803
2,1,0.889,"negative_unfamiliar","no_conflict",0.0687235844681176,36,2.94890176097021,1.002
2,1,0.752,"positive","no_conflict",0.1168300935958,37,2.87621784059164,0.889
2,1,0.783,"negative_rc","conflict",0.164936602723482,38,2.89376176205794,0.752
2,1,0.702,"negative_highly_familiar","conflict",0.213043111851164,39,2.84633711212981,0.783
2,1,0.766,"positive","no_conflict",0.261149620978847,40,2.8842287696326,0.702
2,1,0.765,"positive","no_conflict",0.309256130106529,41,2.88366143515362,0.766
2,1,0.756,"negative_familiar","conflict",0.357362639234211,42,2.87852179550121,0.765
2,1,0.827,"negative_unfamiliar","no_conflict",0.405469148361894,43,2.91750550955255,0.756
2,1,0.674,"positive","no_conflict",0.453575657489576,44,2.82865989653532,0.827
2,1,0.721,"positive","no_conflict",0.501682166617258,45,2.85793526471943,0.674
2,1,0.944,"negative_rc","conflict",0.54978867574494,46,2.97497199429807,0.721
2,1,1.087,"positive","no_conflict",0.597895184872623,47,3.03622954408629,0.944
2,1,0.927,"negative_familiar","conflict",0.646001694000305,48,2.9670797341445,1.087
2,1,0.825,"negative_unfamiliar","no_conflict",0.694108203127987,49,2.91645394854993,0.927
2,1,0.936,"positive","no_conflict",0.74221471225567,50,2.97127584873811,0.825
2,1,0.976,"positive","no_conflict",0.790321221383352,51,2.98944981766669,0.936
2,1,0.911,"negative_highly_familiar","conflict",0.838427730511034,52,2.959518376973,0.976
2,1,1.158,"negative_familiar","conflict",0.886534239638716,53,3.06370855939142,0.911
2,1,0.821,"positive","no_conflict",0.934640748766399,54,2.91434315711944,1.158
2,0,0.764,"positive","no_conflict",0.982747257894081,55,2.88309335857569,0.821
2,1,1.059,"negative_rc","conflict",1.03085376702176,56,3.02489596010748,0.764
2,1,0.842,"positive","no_conflict",1.07896027614945,57,2.92531209149965,1.059
2,1,1.354,"negative_rc","conflict",1.12706678527713,58,3.13161866434913,0.842
2,0,1.321,"positive","no_conflict",1.17517329440481,59,3.12090281761453,1.354
2,1,0.72,"negative_highly_familiar","conflict",1.22327980353249,60,2.85733249643127,1.321
2,1,0.767,"positive","no_conflict",1.27138631266017,61,2.88479536394898,0.72
2,1,1.086,"negative_highly_familiar","conflict",1.31949282178786,62,3.03582982525283,0.767
2,1,1.541,"negative_familiar","conflict",1.36759933091554,63,3.18780263871842,1.086
2,1,0.98,"positive","no_conflict",1.41570584004322,64,2.99122607569249,1.541
2,1,0.755,"negative_unfamiliar","no_conflict",1.4638123491709,65,2.87794695162919,0.98
2,1,1.003,"positive","no_conflict",1.51191885829859,66,3.00130093302042,0.755
2,1,0.986,"negative_rc","conflict",1.56002536742627,67,2.99387691494121,1.003
2,0,1.705,"positive","no_conflict",1.60813187655395,68,3.23172438332852,0.986
2,1,0.848,"positive","no_conflict",1.65623838568163,69,2.92839585225671,1.705
2,1,1.047,"negative_familiar","conflict",1.70434489480932,70,3.01994668167884,0.848
2,1,0.998,"negative_unfamiliar","no_conflict",1.752451403937,71,2.99913054128737,1.047
2,1,1.069,"positive","no_conflict",1.80055791306468,72,3.02897770520878,0.998
3,1,0.404,"negative_unfamiliar","no_conflict",-1.61500423500076,1,2.60638136511061,1.069
3,1,0.387,"positive","no_conflict",-1.56689772587308,2,2.58771096501891,0.404
3,1,0.482,"negative_rc","conflict",-1.5187912167454,3,2.68304703823885,0.387
3,1,0.465,"positive","no_conflict",-1.47068470761772,4,2.66745295288995,0.482
3,1,0.392,"negative_highly_familiar","conflict",-1.42257819849003,5,2.59328606702046,0.465
3,1,0.431,"positive","no_conflict",-1.37447168936235,6,2.63447727016073,0.392
3,1,0.486,"negative_familiar","conflict",-1.32636518023467,7,2.68663626926229,0.431
3,0,0.43,"positive","no_conflict",-1.27825867110699,8,2.63346845557959,0.486
3,1,0.517,"positive","no_conflict",-1.2301521619793,9,2.71349054309394,0.43
3,1,0.692,"negative_rc","conflict",-1.18204565285162,10,2.84010609445676,0.517
3,1,0.555,"negative_familiar","conflict",-1.13393914372394,11,2.74429298312268,0.692
3,1,0.458,"positive","no_conflict",-1.08583263459626,12,2.66086547800387,0.555
3,1,0.529,"positive","no_conflict",-1.03772612546857,13,2.72345567203519,0.458
3,1,0.552,"negative_rc","conflict",-0.989619616340893,14,2.7419390777292,0.529
3,1,0.479,"negative_highly_familiar","conflict",-0.94151310721321,15,2.68033551341456,0.552
3,0,0.551,"positive","no_conflict",-0.893406598085528,16,2.74115159885178,0.479
3,1,0.598,"positive","no_conflict",-0.845300088957846,17,2.77670118398841,0.551
3,1,0.565,"negative_unfamiliar","no_conflict",-0.797193579830163,18,2.75204844781944,0.598
3,1,0.604,"positive","no_conflict",-0.749087070702481,19,2.78103693862113,0.565
3,1,0.467,"negative_highly_familiar","conflict",-0.700980561574799,20,2.66931688056611,0.604
3,1,0.65,"positive","no_conflict",-0.652874052447117,21,2.81291335664286,0.467
3,1,0.649,"negative_familiar","conflict",-0.604767543319434,22,2.81224469680037,0.65
3,1,0.801,"negative_unfamiliar","no_conflict",-0.556661034191752,23,2.90363251608424,0.649
3,1,0.64,"positive","no_conflict",-0.50855452506407,24,2.80617997398389,0.801
3,1,0.927,"negative_highly_familiar","conflict",-0.460448015936387,25,2.9670797341445,0.64
3,1,0.502,"positive","no_conflict",-0.412341506808705,26,2.70070371714502,0.927
3,1,0.557,"negative_familiar","conflict",-0.364234997681023,27,2.74585519517373,0.502
3,1,0.66,"positive","no_conflict",-0.316128488553341,28,2.81954393554187,0.557
3,1,0.515,"positive","no_conflict",-0.268021979425658,29,2.71180722904119,0.66
3,1,0.722,"negative_rc","conflict",-0.219915470297976,30,2.85853719756964,0.515
3,1,0.866,"positive","no_conflict",-0.171808961170294,31,2.93751789201735,0.722
3,0,0.489,"negative_highly_familiar","conflict",-0.123702452042611,32,2.68930885912362,0.866
3,1,0.528,"positive","no_conflict",-0.0755959429149292,33,2.72263392253381,0.489
3,1,0.575,"negative_unfamiliar","no_conflict",-0.0274894337872469,34,2.75966784468963,0.528
3,1,0.742,"positive","no_conflict",0.0206170753404354,35,2.87040390527903,0.575
3,1,0.437,"negative_unfamiliar","no_conflict",0.0687235844681176,36,2.64048143697042,0.742
3,1,0.524,"positive","no_conflict",0.1168300935958,37,2.71933128698373,0.437
3,1,0.547,"negative_rc","conflict",0.164936602723482,38,2.73798732633343,0.524
3,1,0.723,"negative_highly_familiar","conflict",0.213043111851164,39,2.85913829729453,0.547
3,1,0.498,"positive","no_conflict",0.261149620978847,40,2.69722934275972,0.723
3,1,0.433,"positive","no_conflict",0.309256130106529,41,2.63648789635337,0.498
3,1,0.512,"negative_familiar","conflict",0.357362639234211,42,2.70926996097583,0.433
3,1,0.591,"negative_unfamiliar","no_conflict",0.405469148361894,43,2.77158748088126,0.512
3,1,0.51,"positive","no_conflict",0.453575657489576,44,2.70757017609794,0.591
3,1,0.509,"positive","no_conflict",0.501682166617258,45,2.70671778233676,0.51
3,0,0.581,"negative_rc","conflict",0.54978867574494,46,2.76417613239033,0.509
3,1,0.388,"positive","no_conflict",0.597895184872623,47,2.58883172559421,0.581
3,1,0.563,"negative_familiar","conflict",0.646001694000305,48,2.75050839485135,0.388
3,1,0.434,"negative_unfamiliar","no_conflict",0.694108203127987,49,2.63748972951251,0.563
3,1,0.434,"positive","no_conflict",0.74221471225567,50,2.63748972951251,0.434
3,1,0.505,"positive","no_conflict",0.790321221383352,51,2.70329137811866,0.434
3,1,0.728,"negative_highly_familiar","conflict",0.838427730511034,52,2.86213137931304,0.505
3,1,0.551,"negative_familiar","conflict",0.886534239638716,53,2.74115159885178,0.728
3,1,0.454,"positive","no_conflict",0.934640748766399,54,2.6570558528571,0.551
3,0,0.597,"positive","no_conflict",0.982747257894081,55,2.77597433112937,0.454
3,1,0.708,"negative_rc","conflict",1.03085376702176,56,2.85003325768977,0.597
3,1,0.5,"positive","no_conflict",1.07896027614945,57,2.69897000433602,0.708
3,1,0.747,"negative_rc","conflict",1.12706678527713,58,2.8733206018154,0.5
3,1,0.514,"positive","no_conflict",1.17517329440481,59,2.71096311899528,0.747
3,1,0.521,"negative_highly_familiar","conflict",1.22327980353249,60,2.71683772329952,0.514
3,1,0.4,"positive","no_conflict",1.27138631266017,61,2.60205999132796,0.521
3,1,0.679,"negative_highly_familiar","conflict",1.31949282178786,62,2.8318697742805,0.4
3,1,0.638,"negative_familiar","conflict",1.36759933091554,63,2.80482067872116,0.679
3,1,0.541,"positive","no_conflict",1.41570584004322,64,2.73319726510657,0.638
3,1,0.597,"negative_unfamiliar","no_conflict",1.4638123491709,65,2.77597433112937,0.541
3,0,1.18,"positive","no_conflict",1.51191885829859,66,3.07188200730613,0.597
3,1,0.467,"negative_rc","conflict",1.56002536742627,67,2.66931688056611,1.18
3,1,0.442,"positive","no_conflict",1.60813187655395,68,2.64542226934909,0.467
3,1,0.577,"positive","no_conflict",1.65623838568163,69,2.76117581315573,0.442
3,1,0.536,"negative_familiar","conflict",1.70434489480932,70,2.72916478969277,0.577
3,1,0.656,"negative_unfamiliar","no_conflict",1.752451403937,71,2.81690383937566,0.536
3,1,0.638,"positive","no_conflict",1.80055791306468,72,2.80482067872116,0.656
4,1,0.599,"negative_unfamiliar","no_conflict",-1.61500423500076,1,2.77742682238931,0.638
4,1,0.526,"positive","no_conflict",-1.56689772587308,2,2.72098574415374,0.599
4,1,0.59,"negative_rc","conflict",-1.5187912167454,3,2.77085201164214,0.526
4,1,0.501,"positive","no_conflict",-1.47068470761772,4,2.69983772586725,0.59
4,1,0.668,"negative_highly_familiar","conflict",-1.42257819849003,5,2.82477646247555,0.501
4,1,0.667,"positive","no_conflict",-1.37447168936235,6,2.82412583391655,0.668
4,1,0.666,"negative_familiar","conflict",-1.32636518023467,7,2.8234742291703,0.667
4,1,0.961,"positive","no_conflict",-1.27825867110699,8,2.98272338766855,0.666
4,1,0.864,"positive","no_conflict",-1.2301521619793,9,2.93651374247889,0.961
4,1,0.591,"negative_rc","conflict",-1.18204565285162,10,2.77158748088126,0.864
4,1,0.591,"negative_familiar","conflict",-1.13393914372394,11,2.77158748088126,0.591
4,1,0.774,"positive","no_conflict",-1.08583263459626,12,2.88874096068289,0.591
4,1,0.669,"positive","no_conflict",-1.03772612546857,13,2.82542611776782,0.774
4,1,0.764,"negative_rc","conflict",-0.989619616340893,14,2.88309335857569,0.669
4,1,0.627,"negative_highly_familiar","conflict",-0.94151310721321,15,2.79726754083072,0.764
4,1,0.626,"positive","no_conflict",-0.893406598085528,16,2.79657433321043,0.627
4,1,0.577,"positive","no_conflict",-0.845300088957846,17,2.76117581315573,0.626
4,1,0.705,"negative_unfamiliar","no_conflict",-0.797193579830163,18,2.8481891169914,0.577
4,1,0.504,"positive","no_conflict",-0.749087070702481,19,2.70243053644553,0.705
4,1,0.655,"negative_highly_familiar","conflict",-0.700980561574799,20,2.81624129999178,0.504
4,1,0.591,"positive","no_conflict",-0.652874052447117,21,2.77158748088126,0.655
4,1,0.63,"negative_familiar","conflict",-0.604767543319434,22,2.79934054945358,0.591
4,1,0.565,"negative_unfamiliar","no_conflict",-0.556661034191752,23,2.75204844781944,0.63
4,1,0.636,"positive","no_conflict",-0.50855452506407,24,2.80345711564841,0.565
4,1,0.7,"negative_highly_familiar","conflict",-0.460448015936387,25,2.84509804001426,0.636
4,1,0.547,"positive","no_conflict",-0.412341506808705,26,2.73798732633343,0.7
4,1,0.658,"negative_familiar","conflict",-0.364234997681023,27,2.81822589361396,0.547
4,1,0.657,"positive","no_conflict",-0.316128488553341,28,2.81756536955978,0.658
4,1,0.568,"positive","no_conflict",-0.268021979425658,29,2.75434833571102,0.657
4,1,0.623,"negative_rc","conflict",-0.219915470297976,30,2.79448804665917,0.568
4,1,0.606,"positive","no_conflict",-0.171808961170294,31,2.78247262416629,0.623
4,1,0.805,"negative_highly_familiar","conflict",-0.123702452042611,32,2.90579588036787,0.606
4,1,0.525,"positive","no_conflict",-0.0755959429149292,33,2.72015930340596,0.805
4,1,0.692,"negative_unfamiliar","no_conflict",-0.0274894337872469,34,2.84010609445676,0.525
4,1,0.563,"positive","no_conflict",0.0206170753404354,35,2.75050839485135,0.692
4,1,0.618,"negative_unfamiliar","no_conflict",0.0687235844681176,36,2.79098847508882,0.563
4,1,0.529,"positive","no_conflict",0.1168300935958,37,2.72345567203519,0.618
4,1,0.672,"negative_rc","conflict",0.164936602723482,38,2.82736927305383,0.529
4,1,0.647,"negative_highly_familiar","conflict",0.213043111851164,39,2.8109042806687,0.672
4,0,0.558,"positive","no_conflict",0.261149620978847,40,2.74663419893758,0.647
4,1,0.622,"positive","no_conflict",0.309256130106529,41,2.79379038469082,0.558
4,1,0.837,"negative_familiar","conflict",0.357362639234211,42,2.92272545799326,0.622
4,1,0.628,"negative_unfamiliar","no_conflict",0.405469148361894,43,2.7979596437372,0.837
4,1,0.523,"positive","no_conflict",0.453575657489576,44,2.71850168886727,0.628
4,1,0.538,"positive","no_conflict",0.501682166617258,45,2.73078227566639,0.523
4,1,0.745,"negative_rc","conflict",0.54978867574494,46,2.87215627274829,0.538
4,1,0.584,"positive","no_conflict",0.597895184872623,47,2.7664128471124,0.745
4,1,0.72,"negative_familiar","conflict",0.646001694000305,48,2.85733249643127,0.584
4,1,0.588,"negative_unfamiliar","no_conflict",0.694108203127987,49,2.76937732607614,0.72
4,1,0.523,"positive","no_conflict",0.74221471225567,50,2.71850168886727,0.588
4,1,0.618,"positive","no_conflict",0.790321221383352,51,2.79098847508882,0.523
4,1,0.553,"negative_highly_familiar","conflict",0.838427730511034,52,2.7427251313047,0.618
4,1,0.712,"negative_familiar","conflict",0.886534239638716,53,2.85247999363686,0.553
4,1,0.703,"positive","no_conflict",0.934640748766399,54,2.84695532501982,0.712
4,0,0.622,"positive","no_conflict",0.982747257894081,55,2.79379038469082,0.703
4,1,0.662,"negative_rc","conflict",1.03085376702176,56,2.8208579894397,0.622
4,1,0.813,"positive","no_conflict",1.07896027614945,57,2.91009054559407,0.662
4,1,0.9,"negative_rc","conflict",1.12706678527713,58,2.95424250943932,0.813
4,1,0.563,"positive","no_conflict",1.17517329440481,59,2.75050839485135,0.9
4,1,0.618,"negative_highly_familiar","conflict",1.22327980353249,60,2.79098847508882,0.563
4,0,0.537,"positive","no_conflict",1.27138631266017,61,2.72997428569956,0.618
4,1,0.608,"negative_highly_familiar","conflict",1.31949282178786,62,2.78390357927274,0.537
4,1,0.768,"negative_familiar","conflict",1.36759933091554,63,2.88536122003151,0.608
4,1,0.679,"positive","no_conflict",1.41570584004322,64,2.8318697742805,0.768
4,1,0.694,"negative_unfamiliar","no_conflict",1.4638123491709,65,2.84135947045485,0.679
4,1,0.542,"positive","no_conflict",1.51191885829859,66,2.73399928653839,0.694
4,1,0.605,"negative_rc","conflict",1.56002536742627,67,2.78175537465247,0.542
4,1,0.476,"positive","no_conflict",1.60813187655395,68,2.67760695272049,0.605
4,1,0.603,"positive","no_conflict",1.65623838568163,69,2.78031731214015,0.476
4,1,0.635,"negative_familiar","conflict",1.70434489480932,70,2.80277372529198,0.603
4,1,0.666,"negative_unfamiliar","no_conflict",1.752451403937,71,2.8234742291703,0.635
4,1,0.641,"positive","no_conflict",1.80055791306468,72,2.80685802951882,0.666
5,1,0.513,"negative_unfamiliar","no_conflict",-1.71121725325613,1,2.71011736511182,0.641
5,1,0.52,"positive","no_conflict",-1.66311074412844,2,2.7160033436348,0.513
5,1,0.616,"negative_rc","conflict",-1.61500423500076,3,2.78958071216443,0.52
5,1,0.663,"positive","no_conflict",-1.56689772587308,4,2.82151352840477,0.616
5,0,1.118,"negative_highly_familiar","conflict",-1.5187912167454,5,3.0484418035504,0.663
5,1,0.637,"positive","no_conflict",-1.47068470761772,6,2.80413943233535,1.118
5,1,0.564,"negative_familiar","conflict",-1.42257819849003,7,2.75127910398334,0.637
5,1,0.691,"positive","no_conflict",-1.37447168936235,8,2.8394780473742,0.564
5,1,0.538,"positive","no_conflict",-1.32636518023467,9,2.73078227566639,0.691
5,1,0.673,"negative_rc","conflict",-1.27825867110699,10,2.82801506422398,0.538
5,1,0.601,"negative_familiar","conflict",-1.2301521619793,11,2.77887447200274,0.673
5,1,0.744,"positive","no_conflict",-1.18204565285162,12,2.87157293554588,0.601
5,1,0.559,"positive","no_conflict",-1.13393914372394,13,2.74741180788642,0.744
5,1,0.638,"negative_rc","conflict",-1.08583263459626,14,2.80482067872116,0.559
5,1,0.525,"negative_highly_familiar","conflict",-1.03772612546857,15,2.72015930340596,0.638
5,1,0.932,"positive","no_conflict",-0.989619616340893,16,2.96941591235398,0.525
5,1,0.667,"positive","no_conflict",-0.94151310721321,17,2.82412583391655,0.932
5,1,0.611,"negative_unfamiliar","no_conflict",-0.893406598085528,18,2.78604121024255,0.667
5,1,0.547,"positive","no_conflict",-0.845300088957846,19,2.73798732633343,0.611
5,1,0.713,"negative_highly_familiar","conflict",-0.797193579830163,20,2.85308952985187,0.547
5,1,0.56,"positive","no_conflict",-0.749087070702481,21,2.7481880270062,0.713
5,1,0.592,"negative_familiar","conflict",-0.700980561574799,22,2.77232170672292,0.56
5,1,0.695,"negative_unfamiliar","no_conflict",-0.652874052447117,23,2.84198480459011,0.592
5,1,0.877,"positive","no_conflict",-0.604767543319434,24,2.94299959336604,0.695
5,1,0.685,"negative_highly_familiar","conflict",-0.556661034191752,25,2.83569057149243,0.877
5,1,0.541,"positive","no_conflict",-0.50855452506407,26,2.73319726510657,0.685
5,1,0.628,"negative_familiar","conflict",-0.460448015936387,27,2.7979596437372,0.541
5,1,0.691,"positive","no_conflict",-0.412341506808705,28,2.8394780473742,0.628
5,1,0.81,"positive","no_conflict",-0.364234997681023,29,2.90848501887865,0.691
5,1,0.977,"negative_rc","conflict",-0.316128488553341,30,2.98989456371877,0.81
5,1,1.112,"positive","no_conflict",-0.268021979425658,31,3.04610478724604,0.977
5,1,0.599,"negative_highly_familiar","conflict",-0.219915470297976,32,2.77742682238931,1.112
5,1,0.614,"positive","no_conflict",-0.171808961170294,33,2.78816837114117,0.599
5,1,0.59,"negative_unfamiliar","no_conflict",-0.123702452042611,34,2.77085201164214,0.614
5,1,0.669,"positive","no_conflict",-0.0755959429149292,35,2.82542611776782,0.59
5,1,0.596,"negative_unfamiliar","no_conflict",-0.0274894337872469,36,2.77524625974024,0.669
5,1,0.643,"positive","no_conflict",0.0206170753404354,37,2.80821097292422,0.596
5,0,0.714,"negative_rc","conflict",0.0687235844681176,38,2.85369821177617,0.643
5,1,0.945,"negative_highly_familiar","conflict",0.1168300935958,39,2.97543180850926,0.714
5,1,0.76,"positive","no_conflict",0.164936602723482,40,2.88081359228079,0.945
5,1,0.832,"positive","no_conflict",0.213043111851164,41,2.92012332629072,0.76
5,1,0.767,"negative_familiar","conflict",0.261149620978847,42,2.88479536394898,0.832
5,1,0.71,"negative_unfamiliar","no_conflict",0.309256130106529,43,2.85125834871908,0.767
5,1,0.821,"positive","no_conflict",0.357362639234211,44,2.91434315711944,0.71
5,1,0.676,"positive","no_conflict",0.405469148361894,45,2.82994669594164,0.821
5,1,0.963,"negative_rc","conflict",0.453575657489576,46,2.98362628712453,0.676
5,1,0.89,"positive","no_conflict",0.501682166617258,47,2.94939000664491,0.963
5,1,0.625,"negative_familiar","conflict",0.54978867574494,48,2.79588001734408,0.89
5,1,0.504,"negative_unfamiliar","no_conflict",0.597895184872623,49,2.70243053644553,0.625
5,1,0.463,"positive","no_conflict",0.646001694000305,50,2.66558099101795,0.504
5,1,0.494,"positive","no_conflict",0.694108203127987,51,2.69372694892365,0.463
5,1,0.773,"negative_highly_familiar","conflict",0.74221471225567,52,2.88817949391832,0.494
5,1,0.588,"negative_familiar","conflict",0.790321221383352,53,2.76937732607614,0.773
5,1,0.547,"positive","no_conflict",0.838427730511034,54,2.73798732633343,0.588
5,0,0.81,"positive","no_conflict",0.886534239638716,55,2.90848501887865,0.547
5,1,1.138,"negative_rc","conflict",0.934640748766399,56,3.05614226205905,0.81
5,1,0.761,"positive","no_conflict",0.982747257894081,57,2.88138465677057,1.138
5,1,0.56,"negative_rc","conflict",1.03085376702176,58,2.7481880270062,0.761
5,1,0.711,"positive","no_conflict",1.07896027614945,59,2.85186960072977,0.56
5,1,0.598,"negative_highly_familiar","conflict",1.12706678527713,60,2.77670118398841,0.711
5,1,0.645,"positive","no_conflict",1.17517329440481,61,2.80955971463527,0.598
5,1,0.7,"negative_highly_familiar","conflict",1.22327980353249,62,2.84509804001426,0.645
5,1,0.795,"negative_familiar","conflict",1.27138631266017,63,2.90036712865647,0.7
5,1,0.851,"positive","no_conflict",1.31949282178786,64,2.92992956008459,0.795
5,1,0.57,"negative_unfamiliar","no_conflict",1.36759933091554,65,2.75587485567249,0.851
5,1,0.609,"positive","no_conflict",1.41570584004322,66,2.78461729263288,0.57
5,1,0.552,"negative_rc","conflict",1.4638123491709,67,2.7419390777292,0.609
5,1,0.751,"positive","no_conflict",1.51191885829859,68,2.87563993700417,0.552
5,1,0.478,"positive","no_conflict",1.56002536742627,69,2.67942789661212,0.751
5,1,0.653,"negative_familiar","conflict",1.60813187655395,70,2.81491318127507,0.478
5,1,0.7,"negative_unfamiliar","no_conflict",1.65623838568163,71,2.84509804001426,0.653
5,1,0.764,"positive","no_conflict",1.70434489480932,72,2.88309335857569,0.7
6,1,0.465,"negative_unfamiliar","no_conflict",-1.71121725325613,1,2.66745295288995,0.764
6,1,0.712,"positive","no_conflict",-1.66311074412844,2,2.85247999363686,0.465
6,1,0.487,"negative_rc","conflict",-1.61500423500076,3,2.68752896121463,0.712
6,1,0.542,"positive","no_conflict",-1.56689772587308,4,2.73399928653839,0.487
6,1,0.533,"negative_highly_familiar","conflict",-1.5187912167454,5,2.72672720902657,0.542
6,1,0.949,"positive","no_conflict",-1.47068470761772,6,2.97726621242729,0.533
6,1,0.644,"negative_familiar","conflict",-1.42257819849003,7,2.80888586735981,0.949
6,1,0.971,"positive","no_conflict",-1.37447168936235,8,2.987219229908,0.644
6,1,0.578,"positive","no_conflict",-1.32636518023467,9,2.76192783842053,0.971
6,1,0.737,"negative_rc","conflict",-1.27825867110699,10,2.86746748785905,0.578
6,1,0.744,"negative_familiar","conflict",-1.2301521619793,11,2.87157293554588,0.737
6,1,0.455,"positive","no_conflict",-1.18204565285162,12,2.65801139665711,0.744
6,1,0.695,"positive","no_conflict",-1.13393914372394,13,2.84198480459011,0.455
6,1,0.678,"negative_rc","conflict",-1.08583263459626,14,2.83122969386706,0.695
6,1,0.565,"negative_highly_familiar","conflict",-1.03772612546857,15,2.75204844781944,0.678
6,1,0.596,"positive","no_conflict",-0.989619616340893,16,2.77524625974024,0.565
6,1,0.771,"positive","no_conflict",-0.94151310721321,17,2.88705437805096,0.596
6,1,0.634,"negative_unfamiliar","no_conflict",-0.893406598085528,18,2.80208925788173,0.771
6,1,0.641,"positive","no_conflict",-0.845300088957846,19,2.80685802951882,0.634
6,1,0.784,"negative_highly_familiar","conflict",-0.797193579830163,20,2.89431606268444,0.641
6,1,0.776,"positive","no_conflict",-0.749087070702481,21,2.88986172125819,0.784
6,1,0.839,"negative_familiar","conflict",-0.700980561574799,22,2.9237619608287,0.776
6,1,0.702,"negative_unfamiliar","no_conflict",-0.652874052447117,23,2.84633711212981,0.839
6,1,0.574,"positive","no_conflict",-0.604767543319434,24,2.75891189239797,0.702
6,1,0.98,"negative_highly_familiar","conflict",-0.556661034191752,25,2.99122607569249,0.574
6,1,0.636,"positive","no_conflict",-0.50855452506407,26,2.80345711564841,0.98
6,1,0.755,"negative_familiar","conflict",-0.460448015936387,27,2.87794695162919,0.636
6,1,0.499,"positive","no_conflict",-0.412341506808705,28,2.69810054562339,0.755
6,1,0.618,"positive","no_conflict",-0.364234997681023,29,2.79098847508882,0.499
6,0,0.505,"negative_rc","conflict",-0.316128488553341,30,2.70329137811866,0.618
6,1,0.704,"positive","no_conflict",-0.268021979425658,31,2.84757265914211,0.505
6,1,0.991,"negative_highly_familiar","conflict",-0.219915470297976,32,2.99607365448528,0.704
6,1,0.75,"positive","no_conflict",-0.171808961170294,33,2.8750612633917,0.991
6,1,0.797,"negative_unfamiliar","no_conflict",-0.123702452042611,34,2.90145832139611,0.75
6,1,0.5,"positive","no_conflict",-0.0755959429149292,35,2.69897000433602,0.797
6,1,0.612,"negative_unfamiliar","no_conflict",-0.0274894337872469,36,2.78675142214556,0.5
6,1,0.555,"positive","no_conflict",0.0206170753404354,37,2.74429298312268,0.612
6,1,0.586,"negative_rc","conflict",0.0687235844681176,38,2.76789761601809,0.555
6,1,0.665,"negative_highly_familiar","conflict",0.1168300935958,39,2.8228216453031,0.586
6,1,0.736,"positive","no_conflict",0.164936602723482,40,2.8668778143375,0.665
6,1,0.607,"positive","no_conflict",0.213043111851164,41,2.78318869107526,0.736
6,1,0.574,"negative_familiar","conflict",0.261149620978847,42,2.75891189239797,0.607
6,1,0.622,"negative_unfamiliar","no_conflict",0.309256130106529,43,2.79379038469082,0.574
6,1,0.813,"positive","no_conflict",0.357362639234211,44,2.91009054559407,0.622
6,1,0.82,"positive","no_conflict",0.405469148361894,45,2.91381385238372,0.813
6,1,1.251,"negative_rc","conflict",0.453575657489576,46,3.09725730969342,0.82
6,1,0.69,"positive","no_conflict",0.501682166617258,47,2.83884909073726,1.251
6,1,0.841,"negative_familiar","conflict",0.54978867574494,48,2.92479599579791,0.69
6,1,0.891,"negative_unfamiliar","no_conflict",0.597895184872623,49,2.94987770403687,0.841
6,0,0.922,"positive","no_conflict",0.646001694000305,50,2.96473092105363,0.891
6,1,0.505,"positive","no_conflict",0.694108203127987,51,2.70329137811866,0.922
6,1,0.552,"negative_highly_familiar","conflict",0.74221471225567,52,2.7419390777292,0.505
6,1,0.631,"negative_familiar","conflict",0.790321221383352,53,2.80002935924413,0.552
6,0,0.783,"positive","no_conflict",0.838427730511034,54,2.89376176205794,0.631
6,0,0.614,"positive","no_conflict",0.886534239638716,55,2.78816837114117,0.783
6,1,0.733,"negative_rc","conflict",0.934640748766399,56,2.86510397464113,0.614
6,1,0.988,"positive","no_conflict",0.982747257894081,57,2.99475694458763,0.733
6,1,0.827,"negative_rc","conflict",1.03085376702176,58,2.91750550955255,0.988
6,1,0.706,"positive","no_conflict",1.07896027614945,59,2.8488047010518,0.827
6,1,0.745,"negative_highly_familiar","conflict",1.12706678527713,60,2.87215627274829,0.706
6,1,1.512,"positive","no_conflict",1.17517329440481,61,3.17955179116519,0.745
6,1,0.584,"negative_highly_familiar","conflict",1.22327980353249,62,2.7664128471124,1.512
6,1,1.359,"negative_familiar","conflict",1.27138631266017,63,3.13321945673249,0.584
6,1,0.526,"positive","no_conflict",1.31949282178786,64,2.72098574415374,1.359
6,1,0.461,"negative_unfamiliar","no_conflict",1.36759933091554,65,2.66370092538965,0.526
6,1,0.692,"positive","no_conflict",1.41570584004322,66,2.84010609445676,0.461
6,1,0.707,"negative_rc","conflict",1.4638123491709,67,2.8494194137969,0.692
6,1,0.69,"positive","no_conflict",1.51191885829859,68,2.83884909073726,0.707
6,0,0.946,"positive","no_conflict",1.56002536742627,69,2.97589113640179,0.69
6,1,0.721,"negative_familiar","conflict",1.60813187655395,70,2.85793526471943,0.946
6,1,1.352,"negative_unfamiliar","no_conflict",1.65623838568163,71,3.13097669160562,0.721
6,1,0.559,"positive","no_conflict",1.70434489480932,72,2.74741180788642,1.352
8,1,0.887,"negative_unfamiliar","no_conflict",-1.71121725325613,1,2.94792361983173,1.014
8,1,1.11,"positive","no_conflict",-1.66311074412844,2,3.04532297878666,0.887
8,1,1.109,"negative_rc","conflict",-1.61500423500076,3,3.04493154614916,1.11
8,1,1.076,"positive","no_conflict",-1.56689772587308,4,3.03181227133037,1.109
8,1,1.179,"negative_highly_familiar","conflict",-1.5187912167454,5,3.07151380509509,1.076
8,1,1.514,"positive","no_conflict",-1.47068470761772,6,3.18012587516405,1.179
8,1,1.209,"negative_familiar","conflict",-1.42257819849003,7,3.08242630086077,1.514
8,1,1.089,"positive","no_conflict",-1.37447168936235,8,3.03702787975578,1.209
8,1,1.088,"positive","no_conflict",-1.32636518023467,9,3.03662889536216,1.089
8,1,1.175,"negative_rc","conflict",-1.27825867110699,10,3.07003786660776,1.088
8,1,1.606,"negative_familiar","conflict",-1.2301521619793,11,3.20574554094266,1.175
8,1,0.853,"positive","no_conflict",-1.18204565285162,12,2.93094903116752,1.606
8,1,1.06,"positive","no_conflict",-1.13393914372394,13,3.02530586526477,0.853
8,1,1.043,"negative_rc","conflict",-1.08583263459626,14,3.01828430842653,1.06
8,1,1.659,"negative_highly_familiar","conflict",-1.03772612546857,15,3.21984638602436,1.043
8,1,0.659,"positive","no_conflict",-0.989619616340893,16,2.81888541459401,1.659
8,1,0.93,"positive","no_conflict",-0.94151310721321,17,2.96848294855394,0.659
8,1,0.92,"negative_unfamiliar","no_conflict",-0.893406598085528,18,2.96378782734556,0.93
8,1,0.64,"positive","no_conflict",-0.845300088957846,19,2.80617997398389,0.92
8,1,1.71,"negative_highly_familiar","conflict",-0.797193579830163,20,3.23299611039215,0.64
8,1,0.742,"positive","no_conflict",-0.749087070702481,21,2.87040390527903,1.71
8,1,1.061,"negative_familiar","conflict",-0.700980561574799,22,3.02571538390134,0.742
8,1,0.981,"negative_unfamiliar","no_conflict",-0.652874052447117,23,2.99166900737995,1.061
8,1,1.204,"positive","no_conflict",-0.604767543319434,24,3.08062648692181,0.981
8,1,0.731,"negative_highly_familiar","conflict",-0.556661034191752,25,2.86391737695786,1.204
8,1,0.826,"positive","no_conflict",-0.50855452506407,26,2.91698004732038,0.731
8,1,1.049,"negative_familiar","conflict",-0.460448015936387,27,3.02077548819356,0.826
8,1,1.016,"positive","no_conflict",-0.412341506808705,28,3.0068937079479,1.049
8,1,0.855,"positive","no_conflict",-0.364234997681023,29,2.93196611472817,1.016
8,1,0.927,"negative_rc","conflict",-0.316128488553341,30,2.9670797341445,0.855
8,1,0.918,"positive","no_conflict",-0.268021979425658,31,2.96284268120124,0.927
8,1,0.877,"negative_highly_familiar","conflict",-0.219915470297976,32,2.94299959336604,0.918
8,1,0.724,"positive","no_conflict",-0.171808961170294,33,2.85973856619715,0.877
8,1,0.963,"negative_unfamiliar","no_conflict",-0.123702452042611,34,2.98362628712453,0.724
8,1,0.818,"positive","no_conflict",-0.0755959429149292,35,2.91275330367132,0.963
8,1,0.745,"negative_unfamiliar","no_conflict",-0.0274894337872469,36,2.87215627274829,0.818
8,1,1.048,"positive","no_conflict",0.0206170753404354,37,3.02036128264771,0.745
8,1,0.84,"negative_rc","conflict",0.0687235844681176,38,2.92427928606188,1.048
8,1,1.119,"negative_highly_familiar","conflict",0.1168300935958,39,3.04883008652835,0.84
8,1,0.814,"positive","no_conflict",0.164936602723482,40,2.9106244048892,1.119
8,0,1.221,"positive","no_conflict",0.213043111851164,41,3.08671566394488,0.814
8,0,0.644,"negative_familiar","conflict",0.261149620978847,42,2.80888586735981,1.221
8,1,1.539,"negative_unfamiliar","no_conflict",0.309256130106529,43,3.18723861983148,0.644
8,1,1.13,"positive","no_conflict",0.357362639234211,44,3.05307844348342,1.539
8,1,0.866,"positive","no_conflict",0.405469148361894,45,2.93751789201735,1.13
8,1,1.585,"negative_rc","conflict",0.453575657489576,46,3.20002926655377,0.866
8,1,0.856,"positive","no_conflict",0.501682166617258,47,2.93247376467715,1.585
8,1,1.375,"negative_familiar","conflict",0.54978867574494,48,3.13830269816628,0.856
8,1,1.241,"negative_unfamiliar","no_conflict",0.597895184872623,49,3.09377178149873,1.375
8,1,1.272,"positive","no_conflict",0.646001694000305,50,3.1044871113124,1.241
8,1,0.959,"positive","no_conflict",0.694108203127987,51,2.98181860717066,1.272
8,1,1.038,"negative_highly_familiar","conflict",0.74221471225567,52,3.01619735351244,0.959
8,1,0.886,"negative_familiar","conflict",0.790321221383352,53,2.94743372188705,1.038
8,1,1.037,"positive","no_conflict",0.838427730511034,54,3.01577875638904,0.886
8,0,1.148,"positive","no_conflict",0.886534239638716,55,3.05994188806195,1.037
8,0,0.987,"negative_rc","conflict",0.934640748766399,56,2.99431715266964,1.148
8,1,NA,"positive","no_conflict",0.982747257894081,57,NA,0.987
8,1,0.905,"negative_rc","conflict",1.03085376702176,58,2.9566485792052,1.738
8,1,1.024,"positive","no_conflict",1.07896027614945,59,3.01029995663981,0.905
8,1,1.175,"negative_highly_familiar","conflict",1.12706678527713,60,3.07003786660776,1.024
8,1,0.671,"positive","no_conflict",1.17517329440481,61,2.82672252016899,1.175
8,1,1.59,"negative_highly_familiar","conflict",1.22327980353249,62,3.20139712432045,0.671
8,0,0.973,"negative_familiar","conflict",1.27138631266017,63,2.98811284026835,1.59
8,1,0.932,"positive","no_conflict",1.31949282178786,64,2.96941591235398,0.973
8,1,0.803,"negative_unfamiliar","no_conflict",1.36759933091554,65,2.90471554527868,0.932
8,1,0.618,"positive","no_conflict",1.41570584004322,66,2.79098847508882,0.803
8,1,1.033,"negative_rc","conflict",1.4638123491709,67,3.01410032151962,0.618
8,1,0.777,"positive","no_conflict",1.51191885829859,68,2.89042101880091,1.033
8,1,0.64,"positive","no_conflict",1.56002536742627,69,2.80617997398389,0.777
8,1,1.215,"negative_familiar","conflict",1.60813187655395,70,3.08457627793433,0.64
8,1,1.03,"negative_unfamiliar","no_conflict",1.65623838568163,71,3.01283722470517,1.215
8,1,0.637,"positive","no_conflict",1.70434489480932,72,2.80413943233535,1.03
9,1,0.672,"negative_unfamiliar","no_conflict",-1.71121725325613,1,2.82736927305383,0.637
9,1,0.535,"positive","no_conflict",-1.66311074412844,2,2.72835378202123,0.672
9,1,0.718,"negative_rc","conflict",-1.61500423500076,3,2.8561244442423,0.535
9,1,1.022,"positive","no_conflict",-1.56689772587308,4,3.00945089579869,0.718
9,1,0.613,"negative_highly_familiar","conflict",-1.5187912167454,5,2.78746047451842,1.022
9,1,0.532,"positive","no_conflict",-1.47068470761772,6,2.72591163229505,0.613
9,1,0.819,"negative_familiar","conflict",-1.42257819849003,7,2.91328390176042,0.532
9,1,1.09,"positive","no_conflict",-1.37447168936235,8,3.03742649794062,0.819
9,1,0.697,"positive","no_conflict",-1.32636518023467,9,2.84323277809801,1.09
9,1,1.224,"negative_rc","conflict",-1.27825867110699,10,3.08778141780954,0.697
9,1,1.048,"negative_familiar","conflict",-1.2301521619793,11,3.02036128264771,1.224
9,1,0.751,"positive","no_conflict",-1.18204565285162,12,2.87563993700417,1.048
9,1,0.894,"positive","no_conflict",-1.13393914372394,13,2.95133751879592,0.751
9,1,0.725,"negative_rc","conflict",-1.08583263459626,14,2.86033800657099,0.894
9,1,0.692,"negative_highly_familiar","conflict",-1.03772612546857,15,2.84010609445676,0.725
9,1,0.947,"positive","no_conflict",-0.989619616340893,16,2.97634997900327,0.692
9,1,0.49,"positive","no_conflict",-0.94151310721321,17,2.69019608002851,0.947
9,1,0.953,"negative_unfamiliar","no_conflict",-0.893406598085528,18,2.97909290063833,0.49
9,1,1.209,"positive","no_conflict",-0.845300088957846,19,3.08242630086077,0.953
9,1,NA,"negative_highly_familiar","conflict",-0.797193579830163,20,NA,1.209
9,1,0.807,"positive","no_conflict",-0.749087070702481,21,2.90687353472207,2.16
9,1,1.014,"negative_familiar","conflict",-0.700980561574799,22,3.00603795499732,0.807
9,1,0.725,"negative_unfamiliar","no_conflict",-0.652874052447117,23,2.86033800657099,1.014
9,1,0.636,"positive","no_conflict",-0.604767543319434,24,2.80345711564841,0.725
9,1,1.187,"negative_highly_familiar","conflict",-0.556661034191752,25,3.07445071895459,0.636
9,1,0.651,"positive","no_conflict",-0.50855452506407,26,2.81358098856819,1.187
9,1,1.034,"negative_familiar","conflict",-0.460448015936387,27,3.01452053875792,0.651
9,1,1.633,"positive","no_conflict",-0.412341506808705,28,3.21298618473667,1.034
9,1,0.64,"positive","no_conflict",-0.364234997681023,29,2.80617997398389,1.633
9,1,0.671,"negative_rc","conflict",-0.316128488553341,30,2.82672252016899,0.64
9,1,0.766,"positive","no_conflict",-0.268021979425658,31,2.8842287696326,0.671
9,1,0.709,"negative_highly_familiar","conflict",-0.219915470297976,32,2.85064623518307,0.766
9,1,0.86,"positive","no_conflict",-0.171808961170294,33,2.93449845124357,0.709
9,1,0.884,"negative_unfamiliar","no_conflict",-0.123702452042611,34,2.94645226501307,0.86
9,1,0.883,"positive","no_conflict",-0.0755959429149292,35,2.94596070357757,0.884
9,1,0.634,"negative_unfamiliar","no_conflict",-0.0274894337872469,36,2.80208925788173,0.883
9,1,0.633,"positive","no_conflict",0.0206170753404354,37,2.80140371001736,0.634
9,1,0.632,"negative_rc","conflict",0.0687235844681176,38,2.80071707828239,0.633
9,1,0.639,"negative_highly_familiar","conflict",0.1168300935958,39,2.8055008581584,0.632
9,1,0.982,"positive","no_conflict",0.164936602723482,40,2.99211148778695,0.639
9,1,0.814,"positive","no_conflict",0.213043111851164,41,2.9106244048892,0.982
9,1,0.885,"negative_familiar","conflict",0.261149620978847,42,2.94694327069783,0.814
9,1,1.228,"negative_unfamiliar","no_conflict",0.309256130106529,43,3.08919836680515,0.885
9,1,0.859,"positive","no_conflict",0.357362639234211,44,2.93399316383124,1.228
9,1,0.73,"positive","no_conflict",0.405469148361894,45,2.86332286012046,0.859
9,1,0.593,"negative_rc","conflict",0.453575657489576,46,2.77305469336426,0.73
9,1,1.056,"positive","no_conflict",0.501682166617258,47,3.02366391819779,0.593
9,1,0.673,"negative_familiar","conflict",0.54978867574494,48,2.82801506422398,1.056
9,1,0.569,"negative_unfamiliar","no_conflict",0.597895184872623,49,2.75511226639507,0.673
9,1,0.504,"positive","no_conflict",0.646001694000305,50,2.70243053644553,0.569
9,1,NA,"positive","no_conflict",0.694108203127987,51,NA,0.504
9,1,0.695,"negative_highly_familiar","conflict",0.74221471225567,52,2.84198480459011,2.119
9,1,0.918,"negative_familiar","conflict",0.790321221383352,53,2.96284268120124,0.695
9,1,0.509,"positive","no_conflict",0.838427730511034,54,2.70671778233676,0.918
9,0,0.636,"positive","no_conflict",0.886534239638716,55,2.80345711564841,0.509
9,1,0.827,"negative_rc","conflict",0.934640748766399,56,2.91750550955255,0.636
9,1,0.562,"positive","no_conflict",0.982747257894081,57,2.74973631556906,0.827
9,1,0.753,"negative_rc","conflict",1.03085376702176,58,2.8767949762007,0.562
9,1,0.865,"positive","no_conflict",1.07896027614945,59,2.93701610746481,0.753
9,1,0.592,"negative_highly_familiar","conflict",1.12706678527713,60,2.77232170672292,0.865
9,0,1.455,"positive","no_conflict",1.17517329440481,61,3.16286299332193,0.592
9,1,0.702,"negative_highly_familiar","conflict",1.22327980353249,62,2.84633711212981,1.455
9,1,1.213,"negative_familiar","conflict",1.27138631266017,63,3.08386080086657,0.702
9,1,0.78,"positive","no_conflict",1.31949282178786,64,2.89209460269048,1.213
9,1,0.587,"negative_unfamiliar","no_conflict",1.36759933091554,65,2.76863810124761,0.78
9,1,0.667,"positive","no_conflict",1.41570584004322,66,2.82412583391655,0.587
9,1,0.65,"negative_rc","conflict",1.4638123491709,67,2.81291335664286,0.667
9,1,0.609,"positive","no_conflict",1.51191885829859,68,2.78461729263288,0.65
9,1,1,"positive","no_conflict",1.56002536742627,69,3,0.609
9,1,0.703,"negative_familiar","conflict",1.60813187655395,70,2.84695532501982,1
9,1,0.966,"negative_unfamiliar","no_conflict",1.65623838568163,71,2.98497712641549,0.703
9,1,0.765,"positive","no_conflict",1.70434489480932,72,2.88366143515362,0.966
10,1,0.616,"negative_unfamiliar","no_conflict",-1.71121725325613,1,2.78958071216443,0.765
10,1,0.607,"positive","no_conflict",-1.66311074412844,2,2.78318869107526,0.616
10,1,0.47,"negative_rc","conflict",-1.61500423500076,3,2.67209785793572,0.607
10,1,0.629,"positive","no_conflict",-1.56689772587308,4,2.79865064544527,0.47
10,1,0.628,"negative_highly_familiar","conflict",-1.5187912167454,5,2.7979596437372,0.629
10,1,0.667,"positive","no_conflict",-1.47068470761772,6,2.82412583391655,0.628
10,1,0.514,"negative_familiar","conflict",-1.42257819849003,7,2.71096311899528,0.667
10,0,0.538,"positive","no_conflict",-1.37447168936235,8,2.73078227566639,0.514
10,1,0.697,"positive","no_conflict",-1.32636518023467,9,2.84323277809801,0.538
10,1,0.704,"negative_rc","conflict",-1.27825867110699,10,2.84757265914211,0.697
10,1,0.847,"negative_familiar","conflict",-1.2301521619793,11,2.92788341033071,0.704
10,1,0.862,"positive","no_conflict",-1.18204565285162,12,2.93550726582471,0.847
10,1,0.637,"positive","no_conflict",-1.13393914372394,13,2.80413943233535,0.862
10,1,0.644,"negative_rc","conflict",-1.08583263459626,14,2.80888586735981,0.637
10,1,0.731,"negative_highly_familiar","conflict",-1.03772612546857,15,2.86391737695786,0.644
10,1,0.771,"positive","no_conflict",-0.989619616340893,16,2.88705437805096,0.731
10,1,0.514,"positive","no_conflict",-0.94151310721321,17,2.71096311899528,0.771
10,1,0.601,"negative_unfamiliar","no_conflict",-0.893406598085528,18,2.77887447200274,0.514
10,1,0.648,"positive","no_conflict",-0.845300088957846,19,2.81157500587059,0.601
10,1,1.159,"negative_highly_familiar","conflict",-0.797193579830163,20,3.0640834359636,0.648
10,1,0.823,"positive","no_conflict",-0.749087070702481,21,2.91539983521227,1.159
10,1,0.614,"negative_familiar","conflict",-0.700980561574799,22,2.78816837114117,0.823
10,1,0.662,"negative_unfamiliar","no_conflict",-0.652874052447117,23,2.8208579894397,0.614
10,1,0.621,"positive","no_conflict",-0.604767543319434,24,2.79309160017658,0.662
10,1,0.892,"negative_highly_familiar","conflict",-0.556661034191752,25,2.95036485437612,0.621
10,1,0.723,"positive","no_conflict",-0.50855452506407,26,2.85913829729453,0.892
10,1,0.57,"negative_familiar","conflict",-0.460448015936387,27,2.75587485567249,0.723
10,0,0.857,"positive","no_conflict",-0.412341506808705,28,2.9329808219232,0.57
10,1,0.824,"positive","no_conflict",-0.364234997681023,29,2.91592721169712,0.857
10,1,0.631,"negative_rc","conflict",-0.316128488553341,30,2.80002935924413,0.824
10,1,0.951,"positive","no_conflict",-0.268021979425658,31,2.97818051693741,0.631
10,1,1.19,"negative_highly_familiar","conflict",-0.219915470297976,32,3.07554696139253,0.951
10,1,0.853,"positive","no_conflict",-0.171808961170294,33,2.93094903116752,1.19
10,1,0.66,"negative_unfamiliar","no_conflict",-0.123702452042611,34,2.81954393554187,0.853
10,1,0.611,"positive","no_conflict",-0.0755959429149292,35,2.78604121024255,0.66
10,1,0.626,"negative_unfamiliar","no_conflict",-0.0274894337872469,36,2.79657433321043,0.611
10,1,0.785,"positive","no_conflict",0.0206170753404354,37,2.89486965674525,0.626
10,1,0.633,"negative_rc","conflict",0.0687235844681176,38,2.80140371001736,0.785
10,1,1.576,"negative_highly_familiar","conflict",0.1168300935958,39,3.19755621315354,0.633
10,1,0.719,"positive","no_conflict",0.164936602723482,40,2.85672889038288,1.576
10,1,0.646,"positive","no_conflict",0.213043111851164,41,2.81023251799508,0.719
10,1,0.693,"negative_familiar","conflict",0.261149620978847,42,2.84073323461181,0.646
10,1,0.684,"negative_unfamiliar","no_conflict",0.309256130106529,43,2.83505610172012,0.693
10,1,0.963,"positive","no_conflict",0.357362639234211,44,2.98362628712453,0.684
10,1,0.586,"positive","no_conflict",0.405469148361894,45,2.76789761601809,0.963
10,1,0.81,"negative_rc","conflict",0.453575657489576,46,2.90848501887865,0.586
10,1,0.745,"positive","no_conflict",0.501682166617258,47,2.87215627274829,0.81
10,1,0.568,"negative_familiar","conflict",0.54978867574494,48,2.75434833571102,0.745
10,1,0.676,"negative_unfamiliar","no_conflict",0.597895184872623,49,2.82994669594164,0.568
10,1,0.587,"positive","no_conflict",0.646001694000305,50,2.76863810124761,0.676
10,1,0.659,"positive","no_conflict",0.694108203127987,51,2.81888541459401,0.587
10,1,0.722,"negative_highly_familiar","conflict",0.74221471225567,52,2.85853719756964,0.659
10,1,0.626,"negative_familiar","conflict",0.790321221383352,53,2.79657433321043,0.722
10,1,1.12,"positive","no_conflict",0.838427730511034,54,3.04921802267018,0.626
10,0,0.608,"positive","no_conflict",0.886534239638716,55,2.78390357927274,1.12
10,1,1.11,"negative_rc","conflict",0.934640748766399,56,3.04532297878666,0.608
10,1,0.654,"positive","no_conflict",0.982747257894081,57,2.81557774832427,1.11
10,1,0.844,"negative_rc","conflict",1.03085376702176,58,2.92634244662566,0.654
10,1,0.701,"positive","no_conflict",1.07896027614945,59,2.84571801796666,0.844
10,1,0.7,"negative_highly_familiar","conflict",1.12706678527713,60,2.84509804001426,0.701
10,1,0.611,"positive","no_conflict",1.17517329440481,61,2.78604121024255,0.7
10,1,0.73,"negative_highly_familiar","conflict",1.22327980353249,62,2.86332286012046,0.611
10,1,1.257,"negative_familiar","conflict",1.27138631266017,63,3.09933527768596,0.73
10,1,0.792,"positive","no_conflict",1.31949282178786,64,2.89872518158949,1.257
10,1,0.687,"negative_unfamiliar","no_conflict",1.36759933091554,65,2.83695673705955,0.792
10,1,0.863,"positive","no_conflict",1.41570584004322,66,2.93601079571521,0.687
10,1,NA,"negative_rc","conflict",1.4638123491709,67,NA,0.863
10,1,0.597,"positive","no_conflict",1.51191885829859,68,2.77597433112937,1.774
10,1,0.604,"positive","no_conflict",1.56002536742627,69,2.78103693862113,0.597
10,1,0.603,"negative_familiar","conflict",1.60813187655395,70,2.78031731214015,0.604
10,1,0.81,"negative_unfamiliar","no_conflict",1.65623838568163,71,2.90848501887865,0.603
10,1,0.833,"positive","no_conflict",1.70434489480932,72,2.92064500140679,0.81
11,1,0.772,"negative_unfamiliar","no_conflict",-1.71121725325613,1,2.88761730033574,0.833
11,1,1.107,"positive","no_conflict",-1.66311074412844,2,3.04414762087872,0.772
11,1,0.835,"negative_rc","conflict",-1.61500423500076,3,2.9216864754836,1.107
11,1,0.466,"positive","no_conflict",-1.56689772587308,4,2.66838591669,0.835
11,1,0.937,"negative_highly_familiar","conflict",-1.5187912167454,5,2.97173959088778,0.466
11,0,0.88,"positive","no_conflict",-1.47068470761772,6,2.94448267215017,0.937
11,1,0.743,"negative_familiar","conflict",-1.42257819849003,7,2.87098881376058,0.88
11,1,0.766,"positive","no_conflict",-1.37447168936235,8,2.8842287696326,0.743
11,1,0.701,"positive","no_conflict",-1.32636518023467,9,2.84571801796666,0.766
11,1,1.389,"negative_rc","conflict",-1.27825867110699,10,3.14270224573762,0.701
11,1,0.916,"negative_familiar","conflict",-1.2301521619793,11,2.96189547366785,1.389
11,1,0.963,"positive","no_conflict",-1.18204565285162,12,2.98362628712453,0.916
11,1,1.33,"positive","no_conflict",-1.13393914372394,13,3.12385164096709,0.963
11,1,0.937,"negative_rc","conflict",-1.08583263459626,14,2.97173959088778,1.33
11,1,0.848,"negative_highly_familiar","conflict",-1.03772612546857,15,2.92839585225671,0.937
11,1,0.415,"positive","no_conflict",-0.989619616340893,16,2.61804809671209,0.848
11,1,0.67,"positive","no_conflict",-0.94151310721321,17,2.82607480270083,0.415
11,1,0.838,"negative_unfamiliar","no_conflict",-0.893406598085528,18,2.92324401863028,0.67
11,1,0.669,"positive","no_conflict",-0.845300088957846,19,2.82542611776782,0.838
11,1,0.836,"negative_highly_familiar","conflict",-0.797193579830163,20,2.92220627743902,0.669
11,1,0.483,"positive","no_conflict",-0.749087070702481,21,2.68394713075151,0.836
11,1,0.61,"negative_familiar","conflict",-0.700980561574799,22,2.78532983501077,0.483
11,1,0.953,"negative_unfamiliar","no_conflict",-0.652874052447117,23,2.97909290063833,0.61
11,1,0.792,"positive","no_conflict",-0.604767543319434,24,2.89872518158949,0.953
11,1,1.256,"negative_highly_familiar","conflict",-0.556661034191752,25,3.09898963940118,0.792
11,1,0.615,"positive","no_conflict",-0.50855452506407,26,2.78887511577542,1.256
11,1,0.934,"negative_familiar","conflict",-0.460448015936387,27,2.97034687623009,0.615
11,1,0.893,"positive","no_conflict",-0.412341506808705,28,2.95085145888855,0.934
11,1,0.996,"positive","no_conflict",-0.364234997681023,29,2.9982593384237,0.893
11,1,0.859,"negative_rc","conflict",-0.316128488553341,30,2.93399316383124,0.996
11,1,0.722,"positive","no_conflict",-0.268021979425658,31,2.85853719756964,0.859
11,1,0.873,"negative_highly_familiar","conflict",-0.219915470297976,32,2.94101424370557,0.722
11,1,0.601,"positive","no_conflict",-0.171808961170294,33,2.77887447200274,0.873
11,1,0.696,"negative_unfamiliar","no_conflict",-0.123702452042611,34,2.84260923961056,0.601
11,1,0.975,"positive","no_conflict",-0.0755959429149292,35,2.98900461569854,0.696
11,1,0.678,"negative_unfamiliar","no_conflict",-0.0274894337872469,36,2.83122969386706,0.975
11,1,0.757,"positive","no_conflict",0.0206170753404354,37,2.87909587950007,0.678
11,1,0.74,"negative_rc","conflict",0.0687235844681176,38,2.86923171973098,0.757
11,1,0.779,"negative_highly_familiar","conflict",0.1168300935958,39,2.89153745767256,0.74
11,1,0.867,"positive","no_conflict",0.164936602723482,40,2.93801909747621,0.779
11,0,0.97,"positive","no_conflict",0.213043111851164,41,2.98677173426624,0.867
11,1,1.169,"negative_familiar","conflict",0.261149620978847,42,3.06781451116184,0.97
11,1,0.824,"negative_unfamiliar","no_conflict",0.309256130106529,43,2.91592721169712,1.169
11,1,1.511,"positive","no_conflict",0.357362639234211,44,3.17926446433903,0.824
11,1,1.262,"positive","no_conflict",0.405469148361894,45,3.10105935490812,1.511
11,1,1.181,"negative_rc","conflict",0.453575657489576,46,3.07224989761351,1.262
11,1,0.997,"positive","no_conflict",0.501682166617258,47,2.99869515831166,1.181
11,1,0.853,"negative_familiar","conflict",0.54978867574494,48,2.93094903116752,0.997
11,1,0.823,"negative_unfamiliar","no_conflict",0.597895184872623,49,2.91539983521227,0.853
11,1,1.014,"positive","no_conflict",0.646001694000305,50,3.00603795499732,0.823
11,1,0.75,"positive","no_conflict",0.694108203127987,51,2.8750612633917,1.014
11,1,1.021,"negative_highly_familiar","conflict",0.74221471225567,52,3.00902574208691,0.75
11,1,0.908,"negative_familiar","conflict",0.790321221383352,53,2.95808584852109,1.021
11,1,1.363,"positive","no_conflict",0.838427730511034,54,3.13449585583467,0.908
11,0,0.73,"positive","no_conflict",0.886534239638716,55,2.86332286012046,1.363
11,1,0.785,"negative_rc","conflict",0.934640748766399,56,2.89486965674525,0.73
11,1,0.888,"positive","no_conflict",0.982747257894081,57,2.9484129657786,0.785
11,1,0.824,"negative_rc","conflict",1.03085376702176,58,2.91592721169712,0.888
11,1,1.039,"positive","no_conflict",1.07896027614945,59,3.01661554755718,0.824
11,1,0.758,"negative_highly_familiar","conflict",1.12706678527713,60,2.87966920563205,1.039
11,1,0.629,"positive","no_conflict",1.17517329440481,61,2.79865064544527,0.758
11,1,1.404,"negative_highly_familiar","conflict",1.22327980353249,62,3.14736710779379,0.629
11,1,0.939,"negative_familiar","conflict",1.27138631266017,63,2.97266559226611,1.404
11,1,0.954,"positive","no_conflict",1.31949282178786,64,2.9795483747041,0.939
11,1,0.754,"negative_unfamiliar","no_conflict",1.36759933091554,65,2.87737134586977,0.954
11,1,0.481,"positive","no_conflict",1.41570584004322,66,2.68214507637383,0.754
11,1,0.688,"negative_rc","conflict",1.4638123491709,67,2.83758843823551,0.481
11,1,0.711,"positive","no_conflict",1.51191885829859,68,2.85186960072977,0.688
11,1,0.582,"positive","no_conflict",1.56002536742627,69,2.76492298464989,0.711
11,1,1.117,"negative_familiar","conflict",1.60813187655395,70,3.04805317311561,0.582
11,1,0.924,"negative_unfamiliar","no_conflict",1.65623838568163,71,2.96567197122011,1.117
11,0,0.859,"positive","no_conflict",1.70434489480932,72,2.93399316383124,0.924
12,1,0.889,"negative_unfamiliar","no_conflict",-1.71121725325613,1,2.94890176097021,0.859
12,1,1.496,"positive","no_conflict",-1.66311074412844,2,3.17493159352844,0.889
12,1,1.239,"negative_rc","conflict",-1.61500423500076,3,3.09307130637606,1.496
12,1,0.966,"positive","no_conflict",-1.56689772587308,4,2.98497712641549,1.239
12,1,NA,"negative_highly_familiar","conflict",-1.5187912167454,5,NA,0.966
12,1,1.061,"positive","no_conflict",-1.47068470761772,6,3.02571538390134,1.765
12,1,0.956,"negative_familiar","conflict",-1.42257819849003,7,2.9804578922761,1.061
12,1,0.963,"positive","no_conflict",-1.37447168936235,8,2.98362628712453,0.956
12,0,0.786,"positive","no_conflict",-1.32636518023467,9,2.89542254603941,0.963
12,1,1.121,"negative_rc","conflict",-1.27825867110699,10,3.04960561259497,0.786
12,1,1,"negative_familiar","conflict",-1.2301521619793,11,3,1.121
12,1,0.703,"positive","no_conflict",-1.18204565285162,12,2.84695532501982,1
12,1,0.998,"positive","no_conflict",-1.13393914372394,13,2.99913054128737,0.703
12,1,0.862,"negative_rc","conflict",-1.08583263459626,14,2.93550726582471,0.998
12,1,1.189,"negative_highly_familiar","conflict",-1.03772612546857,15,3.07518185461869,0.862
12,1,0.988,"positive","no_conflict",-0.989619616340893,16,2.99475694458763,1.189
12,1,0.979,"positive","no_conflict",-0.94151310721321,17,2.99078269180314,0.988
12,1,0.97,"negative_unfamiliar","no_conflict",-0.893406598085528,18,2.98677173426624,0.979
12,1,0.913,"positive","no_conflict",-0.845300088957846,19,2.9604707775343,0.97
12,0,0.992,"negative_highly_familiar","conflict",-0.797193579830163,20,2.99651167215418,0.913
12,1,1.136,"positive","no_conflict",-0.749087070702481,21,3.055378331375,0.992
12,0,1.623,"negative_familiar","conflict",-0.700980561574799,22,3.21031851982623,1.136
12,1,0.782,"negative_unfamiliar","no_conflict",-0.652874052447117,23,2.89320675305985,1.623
12,1,0.949,"positive","no_conflict",-0.604767543319434,24,2.97726621242729,0.782
12,1,1.244,"negative_highly_familiar","conflict",-0.556661034191752,25,3.0948203803548,0.949
12,1,0.963,"positive","no_conflict",-0.50855452506407,26,2.98362628712453,1.244
12,1,1.01,"negative_familiar","conflict",-0.460448015936387,27,3.00432137378264,0.963
12,1,1.193,"positive","no_conflict",-0.412341506808705,28,3.07664044367034,1.01
12,1,1.633,"positive","no_conflict",-0.364234997681023,29,3.21298618473667,1.193
12,0,0.728,"negative_rc","conflict",-0.316128488553341,30,2.86213137931304,1.633
12,1,0.815,"positive","no_conflict",-0.268021979425658,31,2.91115760873998,0.728
12,0,1.078,"negative_highly_familiar","conflict",-0.219915470297976,32,3.03261876085072,0.815
12,1,1.109,"positive","no_conflict",-0.171808961170294,33,3.04493154614916,1.078
12,1,0.533,"negative_unfamiliar","no_conflict",-0.123702452042611,34,2.72672720902657,1.109
12,1,0.868,"positive","no_conflict",-0.0755959429149292,35,2.93851972517649,0.533
12,1,1.235,"negative_unfamiliar","no_conflict",-0.0274894337872469,36,3.09166695759568,0.868
12,1,1.522,"positive","no_conflict",0.0206170753404354,37,3.18241465243455,1.235
12,0,1.433,"negative_rc","conflict",0.0687235844681176,38,3.15624619039734,1.522
12,0,0.897,"negative_highly_familiar","conflict",0.1168300935958,39,2.95279244304409,1.433
12,1,1.232,"positive","no_conflict",0.164936602723482,40,3.09061070782841,0.897
12,1,1.311,"positive","no_conflict",0.213043111851164,41,3.11760269169008,1.232
12,1,1.542,"negative_familiar","conflict",0.261149620978847,42,3.18808437371494,1.311
12,0,0.733,"negative_unfamiliar","no_conflict",0.309256130106529,43,2.86510397464113,1.542
12,1,1.245,"positive","no_conflict",0.357362639234211,44,3.09516935143176,0.733
12,1,1.132,"positive","no_conflict",0.405469148361894,45,3.05384642685225,1.245
12,0,1.435,"negative_rc","conflict",0.453575657489576,46,3.15685190107001,1.132
12,1,1.034,"positive","no_conflict",0.501682166617258,47,3.01452053875792,1.435
12,NA,NA,"negative_familiar","conflict",0.54978867574494,48,NA,1.034
12,1,1.541,"negative_unfamiliar","no_conflict",0.597895184872623,49,3.18780263871842,NA
12,1,1.308,"positive","no_conflict",0.646001694000305,50,3.11660774398825,1.541
12,1,1.139,"positive","no_conflict",0.694108203127987,51,3.0565237240791,1.308
12,1,0.915,"negative_highly_familiar","conflict",0.74221471225567,52,2.96142109406645,1.139
12,1,1.202,"negative_familiar","conflict",0.790321221383352,53,3.07990446766672,0.915
12,1,1.201,"positive","no_conflict",0.838427730511034,54,3.07954300740291,1.202
12,0,1.104,"positive","no_conflict",0.886534239638716,55,3.04296907339318,1.201
12,1,1.367,"negative_rc","conflict",0.934640748766399,56,3.13576851456782,1.104
12,0,1.654,"positive","no_conflict",0.982747257894081,57,3.21853550521653,1.367
12,1,1.509,"negative_rc","conflict",1.03085376702176,58,3.17868923977559,1.654
12,1,1.244,"positive","no_conflict",1.07896027614945,59,3.0948203803548,1.509
12,1,0.996,"negative_highly_familiar","conflict",1.12706678527713,60,2.9982593384237,1.244
12,1,1.115,"positive","no_conflict",1.17517329440481,61,3.04727486738418,0.996
12,1,NA,"negative_highly_familiar","conflict",1.22327980353249,62,NA,1.115
12,1,1.089,"negative_familiar","conflict",1.27138631266017,63,3.03702787975578,2.042
12,0,1.24,"positive","no_conflict",1.31949282178786,64,3.09342168516224,1.089
12,1,1.303,"negative_unfamiliar","no_conflict",1.36759933091554,65,3.11494441571258,1.24
12,1,1.414,"positive","no_conflict",1.41570584004322,66,3.15044940946088,1.303
12,NA,NA,"negative_rc","conflict",1.4638123491709,67,NA,1.414
12,1,1.142,"positive","no_conflict",1.51191885829859,68,3.05766610390983,NA
12,1,1.164,"positive","no_conflict",1.56002536742627,69,3.06595298031387,1.142
12,1,1.084,"negative_familiar","conflict",1.60813187655395,70,3.03502928220237,1.164
12,1,0.955,"negative_unfamiliar","no_conflict",1.65623838568163,71,2.98000337158375,1.084
12,1,1.05,"positive","no_conflict",1.70434489480932,72,3.02118929906994,0.955
13,1,0.566,"negative_unfamiliar","no_conflict",-1.71121725325613,1,2.75281643118827,1.05
13,1,1.021,"positive","no_conflict",-1.66311074412844,2,3.00902574208691,0.566
13,1,0.861,"negative_rc","conflict",-1.61500423500076,3,2.93500315145365,1.021
13,0,1.34,"positive","no_conflict",-1.56689772587308,4,3.12710479836481,0.861
13,0,0.755,"negative_highly_familiar","conflict",-1.5187912167454,5,2.87794695162919,1.34
13,1,0.594,"positive","no_conflict",-1.47068470761772,6,2.77378644498119,0.755
13,1,0.522,"negative_familiar","conflict",-1.42257819849003,7,2.71767050300226,0.594
13,1,1.016,"positive","no_conflict",-1.37447168936235,8,3.0068937079479,0.522
13,1,0.8,"positive","no_conflict",-1.32636518023467,9,2.90308998699194,1.016
13,1,0.591,"negative_rc","conflict",-1.27825867110699,10,2.77158748088126,0.8
13,1,0.615,"negative_familiar","conflict",-1.2301521619793,11,2.78887511577542,0.591
13,1,0.614,"positive","no_conflict",-1.18204565285162,12,2.78816837114117,0.615
13,1,0.477,"positive","no_conflict",-1.13393914372394,13,2.67851837904011,0.614
13,1,0.852,"negative_rc","conflict",-1.08583263459626,14,2.9304395947667,0.477
13,1,0.771,"negative_highly_familiar","conflict",-1.03772612546857,15,2.88705437805096,0.852
13,1,0.834,"positive","no_conflict",-0.989619616340893,16,2.92116605063774,0.771
13,1,0.561,"positive","no_conflict",-0.94151310721321,17,2.74896286125616,0.834
13,1,0.689,"negative_unfamiliar","no_conflict",-0.893406598085528,18,2.83821922190763,0.561
13,1,1.112,"positive","no_conflict",-0.845300088957846,19,3.04610478724604,0.689
13,1,0.695,"negative_highly_familiar","conflict",-0.797193579830163,20,2.84198480459011,1.112
13,1,0.726,"positive","no_conflict",-0.749087070702481,21,2.86093662070009,0.695
13,1,0.565,"negative_familiar","conflict",-0.700980561574799,22,2.75204844781944,0.726
13,1,0.636,"negative_unfamiliar","no_conflict",-0.652874052447117,23,2.80345711564841,0.565
13,0,0.995,"positive","no_conflict",-0.604767543319434,24,2.99782308074573,0.636
13,1,0.922,"negative_highly_familiar","conflict",-0.556661034191752,25,2.96473092105363,0.995
13,1,1.106,"positive","no_conflict",-0.50855452506407,26,3.04375512696868,0.922
13,1,0.665,"negative_familiar","conflict",-0.460448015936387,27,2.8228216453031,1.106
13,1,1.04,"positive","no_conflict",-0.412341506808705,28,3.01703333929878,0.665
13,1,0.679,"positive","no_conflict",-0.364234997681023,29,2.8318697742805,1.04
13,1,0.838,"negative_rc","conflict",-0.316128488553341,30,2.92324401863028,0.679
13,1,0.781,"positive","no_conflict",-0.268021979425658,31,2.8926510338773,0.838
13,1,0.98,"negative_highly_familiar","conflict",-0.219915470297976,32,2.99122607569249,0.781
13,1,0.764,"positive","no_conflict",-0.171808961170294,33,2.88309335857569,0.98
13,1,1.459,"negative_unfamiliar","no_conflict",-0.123702452042611,34,3.16405529189345,0.764
13,1,0.738,"positive","no_conflict",-0.0755959429149292,35,2.86805636182304,1.459
13,1,0.673,"negative_unfamiliar","no_conflict",-0.0274894337872469,36,2.82801506422398,0.738
13,1,1.136,"positive","no_conflict",0.0206170753404354,37,3.055378331375,0.673
13,1,0.863,"negative_rc","conflict",0.0687235844681176,38,2.93601079571521,1.136
13,1,0.678,"negative_highly_familiar","conflict",0.1168300935958,39,2.83122969386706,0.863
13,0,0.725,"positive","no_conflict",0.164936602723482,40,2.86033800657099,0.678
13,1,0.469,"positive","no_conflict",0.213043111851164,41,2.67117284271508,0.725
13,1,0.732,"negative_familiar","conflict",0.261149620978847,42,2.86451108105839,0.469
13,1,0.651,"negative_unfamiliar","no_conflict",0.309256130106529,43,2.81358098856819,0.732
13,1,0.618,"positive","no_conflict",0.357362639234211,44,2.79098847508882,0.651
13,1,0.993,"positive","no_conflict",0.405469148361894,45,2.99694924849538,0.618
13,1,1.12,"negative_rc","conflict",0.453575657489576,46,3.04921802267018,0.993
13,1,0.735,"positive","no_conflict",0.501682166617258,47,2.86628733908419,1.12
13,1,0.998,"negative_familiar","conflict",0.54978867574494,48,2.99913054128737,0.735
13,1,1.037,"negative_unfamiliar","no_conflict",0.597895184872623,49,3.01577875638904,0.998
13,1,NA,"positive","no_conflict",0.646001694000305,50,NA,1.037
13,1,0.525,"positive","no_conflict",0.694108203127987,51,2.72015930340596,2.364
13,1,0.636,"negative_highly_familiar","conflict",0.74221471225567,52,2.80345711564841,0.525
13,1,0.675,"negative_familiar","conflict",0.790321221383352,53,2.82930377283102,0.636
13,1,0.77,"positive","no_conflict",0.838427730511034,54,2.88649072517248,0.675
13,0,0.561,"positive","no_conflict",0.886534239638716,55,2.74896286125616,0.77
13,1,0.664,"negative_rc","conflict",0.934640748766399,56,2.82216807936802,0.561
13,1,0.831,"positive","no_conflict",0.982747257894081,57,2.91960102378411,0.664
13,1,1.334,"negative_rc","conflict",1.03085376702176,58,3.12515582958053,0.831
13,1,0.87,"positive","no_conflict",1.07896027614945,59,2.93951925261862,1.334
13,1,0.693,"negative_highly_familiar","conflict",1.12706678527713,60,2.84073323461181,0.87
13,1,0.932,"positive","no_conflict",1.17517329440481,61,2.96941591235398,0.693
13,1,0.699,"negative_highly_familiar","conflict",1.22327980353249,62,2.84447717574568,0.932
13,1,1.41,"negative_familiar","conflict",1.27138631266017,63,3.14921911265538,0.699
13,1,0.977,"positive","no_conflict",1.31949282178786,64,2.98989456371877,1.41
13,1,0.936,"negative_unfamiliar","no_conflict",1.36759933091554,65,2.97127584873811,0.977
13,1,0.752,"positive","no_conflict",1.41570584004322,66,2.87621784059164,0.936
13,1,0.839,"negative_rc","conflict",1.4638123491709,67,2.9237619608287,0.752
13,1,0.798,"positive","no_conflict",1.51191885829859,68,2.90200289135073,0.839
13,1,0.717,"positive","no_conflict",1.56002536742627,69,2.8555191556678,0.798
13,1,1.364,"negative_familiar","conflict",1.60813187655395,70,3.13481437032046,0.717
13,1,0.987,"negative_unfamiliar","no_conflict",1.65623838568163,71,2.99431715266964,1.364
13,1,1.154,"positive","no_conflict",1.70434489480932,72,3.06220580881971,0.987
14,0,0.464,"negative_unfamiliar","no_conflict",-1.71121725325613,1,2.66651798055488,1.154
14,1,0.943,"positive","no_conflict",-1.66311074412844,2,2.97451169273733,0.464
14,0,0.471,"negative_rc","conflict",-1.61500423500076,3,2.6730209071289,0.943
14,0,0.454,"positive","no_conflict",-1.56689772587308,4,2.6570558528571,0.471
14,0,0.501,"negative_highly_familiar","conflict",-1.5187912167454,5,2.69983772586725,0.454
14,0,0.612,"positive","no_conflict",-1.47068470761772,6,2.78675142214556,0.501
14,0,1.211,"negative_familiar","conflict",-1.42257819849003,7,3.08314414314305,0.612
14,1,0.402,"positive","no_conflict",-1.37447168936235,8,2.60422605308447,1.211
14,1,1.193,"positive","no_conflict",-1.32636518023467,9,3.07664044367034,0.402
14,0,0.905,"negative_rc","conflict",-1.27825867110699,10,2.9566485792052,1.193
14,1,0.896,"negative_familiar","conflict",-1.2301521619793,11,2.95230800966213,0.905
14,1,0.791,"positive","no_conflict",-1.18204565285162,12,2.89817648349768,0.896
14,0,1.71,"positive","no_conflict",-1.13393914372394,13,3.23299611039215,0.791
14,0,0.709,"negative_rc","conflict",-1.08583263459626,14,2.85064623518307,1.71
14,0,0.516,"negative_highly_familiar","conflict",-1.03772612546857,15,2.71264970162721,0.709
14,0,0.771,"positive","no_conflict",-0.989619616340893,16,2.88705437805096,0.516
14,0,0.85,"positive","no_conflict",-0.94151310721321,17,2.92941892571429,0.771
14,0,1.522,"negative_unfamiliar","no_conflict",-0.893406598085528,18,3.18241465243455,0.85
14,1,1.297,"positive","no_conflict",-0.845300088957846,19,3.11293997608408,1.522
14,0,1.168,"negative_highly_familiar","conflict",-0.797193579830163,20,3.06744284277638,1.297
14,1,1.679,"positive","no_conflict",-0.749087070702481,21,3.22505069613805,1.168
14,1,1.71,"negative_familiar","conflict",-0.700980561574799,22,3.23299611039215,1.679
14,1,NA,"negative_unfamiliar","no_conflict",-0.652874052447117,23,NA,1.71
14,1,1.26,"positive","no_conflict",-0.604767543319434,24,3.10037054511756,1.957
14,1,1.069,"negative_highly_familiar","conflict",-0.556661034191752,25,3.02897770520878,1.26
14,1,1.403,"positive","no_conflict",-0.50855452506407,26,3.14705767102836,1.069
14,1,1.379,"negative_familiar","conflict",-0.460448015936387,27,3.13956426617585,1.403
14,1,0.466,"positive","no_conflict",-0.412341506808705,28,2.66838591669,1.379
14,1,1.545,"positive","no_conflict",-0.364234997681023,29,3.18892848376085,0.466
14,1,1.24,"negative_rc","conflict",-0.316128488553341,30,3.09342168516224,1.545
14,1,0.815,"positive","no_conflict",-0.268021979425658,31,2.91115760873998,1.24
14,1,0.926,"negative_highly_familiar","conflict",-0.219915470297976,32,2.96661098668193,0.815
14,0,NA,"positive","no_conflict",-0.171808961170294,33,NA,0.926
14,1,1.005,"negative_unfamiliar","no_conflict",-0.123702452042611,34,3.00216606175651,1.878
14,1,0.804,"positive","no_conflict",-0.0755959429149292,35,2.90525604874845,1.005
14,1,1.419,"negative_unfamiliar","no_conflict",-0.0274894337872469,36,3.15198239545747,0.804
14,1,1.234,"positive","no_conflict",0.0206170753404354,37,3.09131515969722,1.419
14,1,0.969,"negative_rc","conflict",0.0687235844681176,38,2.98632377705077,1.234
14,1,0.864,"negative_highly_familiar","conflict",0.1168300935958,39,2.93651374247889,0.969
14,1,1.351,"positive","no_conflict",0.164936602723482,40,3.13065534902203,0.864
14,0,1.591,"positive","no_conflict",0.213043111851164,41,3.20167017964658,1.351
14,0,1.166,"negative_familiar","conflict",0.261149620978847,42,3.066698550423,1.591
14,1,1.149,"negative_unfamiliar","no_conflict",0.309256130106529,43,3.06032002868829,1.166
14,0,1.004,"positive","no_conflict",0.357362639234211,44,3.001733712809,1.149
14,1,1.579,"positive","no_conflict",0.405469148361894,45,3.19838213000829,1.004
14,1,0.978,"negative_rc","conflict",0.453575657489576,46,2.9903388547876,1.579
14,1,0.521,"positive","no_conflict",0.501682166617258,47,2.71683772329952,0.978
14,1,0.593,"negative_familiar","conflict",0.54978867574494,48,2.77305469336426,0.521
14,1,0.668,"negative_unfamiliar","no_conflict",0.597895184872623,49,2.82477646247555,0.593
14,1,1.427,"positive","no_conflict",0.646001694000305,50,3.15442397311465,0.668
14,1,0.986,"positive","no_conflict",0.694108203127987,51,2.99387691494121,1.427
14,1,0.505,"negative_highly_familiar","conflict",0.74221471225567,52,2.70329137811866,0.986
14,1,1.28,"negative_familiar","conflict",0.790321221383352,53,3.10720996964787,0.505
14,1,1.384,"positive","no_conflict",0.838427730511034,54,3.14113609012074,1.28
14,0,1.063,"positive","no_conflict",0.886534239638716,55,3.0265332645233,1.384
14,1,1.062,"negative_rc","conflict",0.934640748766399,56,3.02612451674545,1.063
14,1,1.237,"positive","no_conflict",0.982747257894081,57,3.09236969962912,1.062
14,1,1.564,"negative_rc","conflict",1.03085376702176,58,3.19423674872383,1.237
14,1,1.003,"positive","no_conflict",1.07896027614945,59,3.00130093302042,1.564
14,1,1.146,"negative_highly_familiar","conflict",1.12706678527713,60,3.05918461763137,1.003
14,1,1.226,"positive","no_conflict",1.17517329440481,61,3.0884904701824,1.146
14,1,1.361,"negative_highly_familiar","conflict",1.22327980353249,62,3.13385812520333,1.226
14,1,NA,"negative_familiar","conflict",1.27138631266017,63,NA,1.361
14,1,0.463,"positive","no_conflict",1.31949282178786,64,2.66558099101795,2.224
14,1,0.822,"negative_unfamiliar","no_conflict",1.36759933091554,65,2.91487181754005,0.463
14,1,1.485,"positive","no_conflict",1.41570584004322,66,3.17172645365323,0.822
14,1,0.9,"negative_rc","conflict",1.4638123491709,67,2.95424250943932,1.485
14,0,1.139,"positive","no_conflict",1.51191885829859,68,3.0565237240791,0.9
14,1,0.875,"positive","no_conflict",1.56002536742627,69,2.94200805302231,1.139
14,1,1.25,"negative_familiar","conflict",1.60813187655395,70,3.09691001300806,0.875
14,1,1.633,"negative_unfamiliar","no_conflict",1.65623838568163,71,3.21298618473667,1.25
14,1,0.552,"positive","no_conflict",1.70434489480932,72,2.7419390777292,1.633
15,1,0.632,"negative_unfamiliar","no_conflict",-1.71121725325613,1,2.80071707828239,0.552
15,1,0.648,"positive","no_conflict",-1.66311074412844,2,2.81157500587059,0.632
15,1,0.655,"negative_rc","conflict",-1.61500423500076,3,2.81624129999178,0.648
15,1,0.526,"positive","no_conflict",-1.56689772587308,4,2.72098574415374,0.655
15,1,0.645,"negative_highly_familiar","conflict",-1.5187912167454,5,2.80955971463527,0.526
15,1,0.572,"positive","no_conflict",-1.47068470761772,6,2.75739602879302,0.645
15,1,0.555,"negative_familiar","conflict",-1.42257819849003,7,2.74429298312268,0.572
15,1,0.922,"positive","no_conflict",-1.37447168936235,8,2.96473092105363,0.555
15,1,0.705,"positive","no_conflict",-1.32636518023467,9,2.8481891169914,0.922
15,1,1.065,"negative_rc","conflict",-1.27825867110699,10,3.02734960777476,0.705
15,1,0.904,"negative_familiar","conflict",-1.2301521619793,11,2.95616843047536,1.065
15,1,0.551,"positive","no_conflict",-1.18204565285162,12,2.74115159885178,0.904
15,1,NA,"positive","no_conflict",-1.13393914372394,13,NA,0.551
15,1,0.725,"negative_rc","conflict",-1.08583263459626,14,2.86033800657099,2.198
15,1,1.132,"negative_highly_familiar","conflict",-1.03772612546857,15,3.05384642685225,0.725
15,1,0.563,"positive","no_conflict",-0.989619616340893,16,2.75050839485135,1.132
15,1,0.547,"positive","no_conflict",-0.94151310721321,17,2.73798732633343,0.563
15,1,0.93,"negative_unfamiliar","no_conflict",-0.893406598085528,18,2.96848294855394,0.547
15,1,0.665,"positive","no_conflict",-0.845300088957846,19,2.8228216453031,0.93
15,1,1.104,"negative_highly_familiar","conflict",-0.797193579830163,20,3.04296907339318,0.665
15,1,0.663,"positive","no_conflict",-0.749087070702481,21,2.82151352840477,1.104
15,1,0.806,"negative_familiar","conflict",-0.700980561574799,22,2.90633504180509,0.663
15,1,0.885,"negative_unfamiliar","no_conflict",-0.652874052447117,23,2.94694327069783,0.806
15,1,0.628,"positive","no_conflict",-0.604767543319434,24,2.7979596437372,0.885
15,1,1.54,"negative_highly_familiar","conflict",-0.556661034191752,25,3.18752072083646,0.628
15,1,0.571,"positive","no_conflict",-0.50855452506407,26,2.75663610824585,1.54
15,1,0.914,"negative_familiar","conflict",-0.460448015936387,27,2.96094619573383,0.571
15,1,0.729,"positive","no_conflict",-0.412341506808705,28,2.86272752831797,0.914
15,0,1.592,"positive","no_conflict",-0.364234997681023,29,3.20194306340165,0.729
15,1,0.871,"negative_rc","conflict",-0.316128488553341,30,2.94001815500766,1.592
15,1,0.518,"positive","no_conflict",-0.268021979425658,31,2.71432975974523,0.871
15,1,1.661,"negative_highly_familiar","conflict",-0.219915470297976,32,3.22036963245139,0.518
15,1,0.997,"positive","no_conflict",-0.171808961170294,33,2.99869515831166,1.661
15,1,0.604,"negative_unfamiliar","no_conflict",-0.123702452042611,34,2.78103693862113,0.997
15,1,0.547,"positive","no_conflict",-0.0755959429149292,35,2.73798732633343,0.604
15,1,0.738,"negative_unfamiliar","no_conflict",-0.0274894337872469,36,2.86805636182304,0.547
15,1,0.721,"positive","no_conflict",0.0206170753404354,37,2.85793526471943,0.738
15,1,1.176,"negative_rc","conflict",0.0687235844681176,38,3.07040732174012,0.721
15,0,NA,"negative_highly_familiar","conflict",0.1168300935958,39,NA,1.176
15,1,0.935,"positive","no_conflict",0.164936602723482,40,2.97081161087252,2.471
15,0,0.782,"positive","no_conflict",0.213043111851164,41,2.89320675305985,0.935
15,1,1.389,"negative_familiar","conflict",0.261149620978847,42,3.14270224573762,0.782
15,1,0.684,"negative_unfamiliar","no_conflict",0.309256130106529,43,2.83505610172012,1.389
15,1,0.755,"positive","no_conflict",0.357362639234211,44,2.87794695162919,0.684
15,1,1.25,"positive","no_conflict",0.405469148361894,45,3.09691001300806,0.755
15,1,1.057,"negative_rc","conflict",0.453575657489576,46,3.02407498730743,1.25
15,1,0.472,"positive","no_conflict",0.501682166617258,47,2.67394199863409,1.057
15,1,0.976,"negative_familiar","conflict",0.54978867574494,48,2.98944981766669,0.472
15,1,0.638,"negative_unfamiliar","no_conflict",0.597895184872623,49,2.80482067872116,0.976
15,1,0.445,"positive","no_conflict",0.646001694000305,50,2.64836001098093,0.638
15,1,0.684,"positive","no_conflict",0.694108203127987,51,2.83505610172012,0.445
15,1,1.123,"negative_highly_familiar","conflict",0.74221471225567,52,3.05037975626146,0.684
15,1,0.666,"negative_familiar","conflict",0.790321221383352,53,2.8234742291703,1.123
15,1,0.674,"positive","no_conflict",0.838427730511034,54,2.82865989653532,0.666
15,0,1.065,"positive","no_conflict",0.886534239638716,55,3.02734960777476,0.674
15,1,0.632,"negative_rc","conflict",0.934640748766399,56,2.80071707828239,1.065
15,1,1.255,"positive","no_conflict",0.982747257894081,57,3.09864372581706,0.632
15,1,0.654,"negative_rc","conflict",1.03085376702176,58,2.81557774832427,1.255
15,1,0.757,"positive","no_conflict",1.07896027614945,59,2.87909587950007,0.654
15,1,0.5,"negative_highly_familiar","conflict",1.12706678527713,60,2.69897000433602,0.757
15,1,0.507,"positive","no_conflict",1.17517329440481,61,2.70500795933334,0.5
15,1,0.635,"negative_highly_familiar","conflict",1.22327980353249,62,2.80277372529198,0.507
15,0,0.698,"negative_familiar","conflict",1.27138631266017,63,2.84385542262316,0.635
15,1,NA,"positive","no_conflict",1.31949282178786,64,NA,0.698
15,1,0.952,"negative_unfamiliar","no_conflict",1.36759933091554,65,2.97863694838447,2.161
15,1,0.576,"positive","no_conflict",1.41570584004322,66,2.76042248342321,0.952
15,1,0.583,"negative_rc","conflict",1.4638123491709,67,2.76566855475901,0.576
15,1,0.766,"positive","no_conflict",1.51191885829859,68,2.8842287696326,0.583
15,1,0.877,"positive","no_conflict",1.56002536742627,69,2.94299959336604,0.766
15,0,1.444,"negative_familiar","conflict",1.60813187655395,70,3.15956719323362,0.877
15,1,0.9,"negative_unfamiliar","no_conflict",1.65623838568163,71,2.95424250943932,1.444
15,1,0.579,"positive","no_conflict",1.70434489480932,72,2.76267856372744,0.9
16,1,0.438,"negative_unfamiliar","no_conflict",-1.71121725325613,1,2.6414741105041,0.579
16,1,0.693,"positive","no_conflict",-1.66311074412844,2,2.84073323461181,0.438
16,1,0.66,"negative_rc","conflict",-1.61500423500076,3,2.81954393554187,0.693
16,1,0.595,"positive","no_conflict",-1.56689772587308,4,2.77451696572855,0.66
16,1,0.482,"negative_highly_familiar","conflict",-1.5187912167454,5,2.68304703823885,0.595
16,1,1.121,"positive","no_conflict",-1.47068470761772,6,3.04960561259497,0.482
16,1,0.792,"negative_familiar","conflict",-1.42257819849003,7,2.89872518158949,1.121
16,1,0.6,"positive","no_conflict",-1.37447168936235,8,2.77815125038364,0.792
16,1,0.623,"positive","no_conflict",-1.32636518023467,9,2.79448804665917,0.6
16,1,0.486,"negative_rc","conflict",-1.27825867110699,10,2.68663626926229,0.623
16,1,0.469,"negative_familiar","conflict",-1.2301521619793,11,2.67117284271508,0.486
16,1,0.82,"positive","no_conflict",-1.18204565285162,12,2.91381385238372,0.469
16,0,0.619,"positive","no_conflict",-1.13393914372394,13,2.79169064902012,0.82
16,1,0.538,"negative_rc","conflict",-1.08583263459626,14,2.73078227566639,0.619
16,1,0.497,"negative_highly_familiar","conflict",-1.03772612546857,15,2.69635638873333,0.538
16,1,0.873,"positive","no_conflict",-0.989619616340893,16,2.94101424370557,0.497
16,1,0.88,"positive","no_conflict",-0.94151310721321,17,2.94448267215017,0.873
16,1,0.679,"negative_unfamiliar","no_conflict",-0.893406598085528,18,2.8318697742805,0.88
16,1,0.59,"positive","no_conflict",-0.845300088957846,19,2.77085201164214,0.679
16,1,1.357,"negative_highly_familiar","conflict",-0.797193579830163,20,3.13257984765974,0.59
16,1,0.62,"positive","no_conflict",-0.749087070702481,21,2.79239168949825,1.357
16,1,1.387,"negative_familiar","conflict",-0.700980561574799,22,3.14207646107328,0.62
16,1,0.747,"negative_unfamiliar","no_conflict",-0.652874052447117,23,2.8733206018154,1.387
16,1,0.85,"positive","no_conflict",-0.604767543319434,24,2.92941892571429,0.747
16,1,1.041,"negative_highly_familiar","conflict",-0.556661034191752,25,3.01745072951054,0.85
16,0,0.512,"positive","no_conflict",-0.50855452506407,26,2.70926996097583,1.041
16,1,0.671,"negative_familiar","conflict",-0.460448015936387,27,2.82672252016899,0.512
16,1,0.614,"positive","no_conflict",-0.412341506808705,28,2.78816837114117,0.671
16,1,1.069,"positive","no_conflict",-0.364234997681023,29,3.02897770520878,0.614
16,1,0.82,"negative_rc","conflict",-0.316128488553341,30,2.91381385238372,1.069
16,1,0.524,"positive","no_conflict",-0.268021979425658,31,2.71933128698373,0.82
16,1,0.675,"negative_highly_familiar","conflict",-0.219915470297976,32,2.82930377283102,0.524
16,1,1.466,"positive","no_conflict",-0.171808961170294,33,3.16613397030511,0.675
16,1,0.681,"negative_unfamiliar","no_conflict",-0.123702452042611,34,2.83314711191279,1.466
16,1,0.864,"positive","no_conflict",-0.0755959429149292,35,2.93651374247889,0.681
16,1,0.727,"negative_unfamiliar","no_conflict",-0.0274894337872469,36,2.86153441085904,0.864
16,1,0.694,"positive","no_conflict",0.0206170753404354,37,2.84135947045485,0.727
16,0,0.702,"negative_rc","conflict",0.0687235844681176,38,2.84633711212981,0.694
16,1,1.261,"negative_highly_familiar","conflict",0.1168300935958,39,3.10071508657308,0.702
16,0,0.7,"positive","no_conflict",0.164936602723482,40,2.84509804001426,1.261
16,1,0.675,"positive","no_conflict",0.213043111851164,41,2.82930377283102,0.7
16,1,1.194,"negative_familiar","conflict",0.261149620978847,42,3.07700432679335,0.675
16,1,0.633,"negative_unfamiliar","no_conflict",0.309256130106529,43,2.80140371001736,1.194
16,1,0.664,"positive","no_conflict",0.357362639234211,44,2.82216807936802,0.633
16,1,0.656,"positive","no_conflict",0.405469148361894,45,2.81690383937566,0.664
16,1,1.183,"negative_rc","conflict",0.453575657489576,46,3.07298474462793,0.656
16,1,1.126,"positive","no_conflict",0.501682166617258,47,3.05153839051533,1.183
16,1,0.781,"negative_familiar","conflict",0.54978867574494,48,2.8926510338773,1.126
16,1,0.742,"negative_unfamiliar","no_conflict",0.597895184872623,49,2.87040390527903,0.781
16,0,0.773,"positive","no_conflict",0.646001694000305,50,2.88817949391832,0.742
16,1,0.485,"positive","no_conflict",0.694108203127987,51,2.68574173860226,0.773
16,1,0.884,"negative_highly_familiar","conflict",0.74221471225567,52,2.94645226501307,0.485
16,1,0.579,"negative_familiar","conflict",0.790321221383352,53,2.76267856372744,0.884
16,1,0.834,"positive","no_conflict",0.838427730511034,54,2.92116605063774,0.579
16,0,0.561,"positive","no_conflict",0.886534239638716,55,2.74896286125616,0.834
16,1,0.664,"negative_rc","conflict",0.934640748766399,56,2.82216807936802,0.561
16,1,1.183,"positive","no_conflict",0.982747257894081,57,3.07298474462793,0.664
16,NA,NA,"negative_rc","conflict",1.03085376702176,58,NA,1.183
16,1,0.702,"positive","no_conflict",1.07896027614945,59,2.84633711212981,NA
16,1,0.445,"negative_highly_familiar","conflict",1.12706678527713,60,2.64836001098093,0.702
16,1,0.556,"positive","no_conflict",1.17517329440481,61,2.74507479158206,0.445
16,1,0.611,"negative_highly_familiar","conflict",1.22327980353249,62,2.78604121024255,0.556
16,1,0.73,"negative_familiar","conflict",1.27138631266017,63,2.86332286012046,0.611
16,1,0.481,"positive","no_conflict",1.31949282178786,64,2.68214507637383,0.73
16,1,1.032,"negative_unfamiliar","no_conflict",1.36759933091554,65,3.01367969729119,0.481
16,1,0.888,"positive","no_conflict",1.41570584004322,66,2.9484129657786,1.032
16,1,0.48,"negative_rc","conflict",1.4638123491709,67,2.68124123737559,0.888
16,1,1.39,"positive","no_conflict",1.51191885829859,68,3.14301480025409,0.48
16,1,1.317,"positive","no_conflict",1.56002536742627,69,3.11958577496178,1.39
16,1,0.613,"negative_familiar","conflict",1.60813187655395,70,2.78746047451842,1.317
16,1,0.532,"negative_unfamiliar","no_conflict",1.65623838568163,71,2.72591163229505,0.613
16,1,0.667,"positive","no_conflict",1.70434489480932,72,2.82412583391655,0.532
17,1,0.599,"negative_unfamiliar","no_conflict",-1.71121725325613,1,2.77742682238931,0.667
17,1,0.902,"positive","no_conflict",-1.66311074412844,2,2.95520653754194,0.599
17,1,0.733,"negative_rc","conflict",-1.61500423500076,3,2.86510397464113,0.902
17,1,1.085,"positive","no_conflict",-1.56689772587308,4,3.03542973818455,0.733
17,1,0.684,"negative_highly_familiar","conflict",-1.5187912167454,5,2.83505610172012,1.085
17,1,0.987,"positive","no_conflict",-1.47068470761772,6,2.99431715266964,0.684
17,1,0.794,"negative_familiar","conflict",-1.42257819849003,7,2.8998205024271,0.987
17,0,1.033,"positive","no_conflict",-1.37447168936235,8,3.01410032151962,0.794
17,1,0.84,"positive","no_conflict",-1.32636518023467,9,2.92427928606188,1.033
17,1,1.391,"negative_rc","conflict",-1.27825867110699,10,3.14332712999205,0.84
17,1,0.878,"negative_familiar","conflict",-1.2301521619793,11,2.9434945159061,1.391
17,1,1.19,"positive","no_conflict",-1.18204565285162,12,3.07554696139253,0.878
17,1,1.045,"positive","no_conflict",-1.13393914372394,13,3.01911629044707,1.19
17,1,0.82,"negative_rc","conflict",-1.08583263459626,14,2.91381385238372,1.045
17,1,0.812,"negative_highly_familiar","conflict",-1.03772612546857,15,2.90955602924118,0.82
17,1,1.187,"positive","no_conflict",-0.989619616340893,16,3.07445071895459,0.812
17,1,1.45,"positive","no_conflict",-0.94151310721321,17,3.16136800223497,1.187
17,1,1.465,"negative_unfamiliar","no_conflict",-0.893406598085528,18,3.16583762469013,1.45
17,1,NA,"positive","no_conflict",-0.845300088957846,19,NA,1.465
17,1,1.008,"negative_highly_familiar","conflict",-0.797193579830163,20,3.00346053210951,1.752
17,1,1.223,"positive","no_conflict",-0.749087070702481,21,3.08742645703629,1.008
17,1,1.286,"negative_familiar","conflict",-0.700980561574799,22,3.1092409685882,1.223
17,1,1.101,"negative_unfamiliar","no_conflict",-0.652874052447117,23,3.04178731897175,1.286
17,1,1.116,"positive","no_conflict",-0.604767543319434,24,3.04766419460156,1.101
17,1,1.483,"negative_highly_familiar","conflict",-0.556661034191752,25,3.17114115102838,1.116
17,1,0.69,"positive","no_conflict",-0.50855452506407,26,2.83884909073726,1.483
17,1,1.21,"negative_familiar","conflict",-0.460448015936387,27,3.08278537031645,0.69
17,1,0.817,"positive","no_conflict",-0.412341506808705,28,2.91222205653242,1.21
17,1,1.16,"positive","no_conflict",-0.364234997681023,29,3.06445798922692,0.817
17,1,0.919,"negative_rc","conflict",-0.316128488553341,30,2.96331551138611,1.16
17,1,1.23,"positive","no_conflict",-0.268021979425658,31,3.0899051114394,0.919
17,1,0.853,"negative_highly_familiar","conflict",-0.219915470297976,32,2.93094903116752,1.23
17,1,0.828,"positive","no_conflict",-0.171808961170294,33,2.91803033678488,0.853
17,0,1.1,"negative_unfamiliar","no_conflict",-0.123702452042611,34,3.04139268515822,0.828
17,1,0.995,"positive","no_conflict",-0.0755959429149292,35,2.99782308074573,1.1
17,1,1.442,"negative_unfamiliar","no_conflict",-0.0274894337872469,36,3.15896526038341,0.995
17,1,0.745,"positive","no_conflict",0.0206170753404354,37,2.87215627274829,1.442
17,1,1.536,"negative_rc","conflict",0.0687235844681176,38,3.18639121569549,0.745
17,1,1.039,"negative_highly_familiar","conflict",0.1168300935958,39,3.01661554755718,1.536
17,1,1.118,"positive","no_conflict",0.164936602723482,40,3.0484418035504,1.039
17,1,1.101,"positive","no_conflict",0.213043111851164,41,3.04178731897175,1.118
17,1,1.477,"negative_familiar","conflict",0.261149620978847,42,3.16938049531195,1.101
17,1,0.804,"negative_unfamiliar","no_conflict",0.309256130106529,43,2.90525604874845,1.477
17,1,0.763,"positive","no_conflict",0.357362639234211,44,2.88252453795488,0.804
17,1,0.954,"positive","no_conflict",0.405469148361894,45,2.9795483747041,0.763
17,1,1.049,"negative_rc","conflict",0.453575657489576,46,3.02077548819356,0.954
17,0,0.944,"positive","no_conflict",0.501682166617258,47,2.97497199429807,1.049
17,1,1.015,"negative_familiar","conflict",0.54978867574494,48,3.00646604224923,0.944
17,1,0.77,"negative_unfamiliar","no_conflict",0.597895184872623,49,2.88649072517248,1.015
17,1,0.649,"positive","no_conflict",0.646001694000305,50,2.81224469680037,0.77
17,1,1.288,"positive","no_conflict",0.694108203127987,51,3.10991586302379,0.649
17,1,1.127,"negative_highly_familiar","conflict",0.74221471225567,52,3.05192391604611,1.288
17,1,0.982,"negative_familiar","conflict",0.790321221383352,53,2.99211148778695,1.127
17,1,1.014,"positive","no_conflict",0.838427730511034,54,3.00603795499732,0.982
17,0,1.253,"positive","no_conflict",0.886534239638716,55,3.09795107099415,1.014
17,1,0.956,"negative_rc","conflict",0.934640748766399,56,2.9804578922761,1.253
17,1,0.771,"positive","no_conflict",0.982747257894081,57,2.88705437805096,0.956
17,1,0.898,"negative_rc","conflict",1.03085376702176,58,2.9532763366673,0.771
17,1,1.073,"positive","no_conflict",1.07896027614945,59,3.03059972196595,0.898
17,1,0.776,"negative_highly_familiar","conflict",1.12706678527713,60,2.88986172125819,1.073
17,0,1.495,"positive","no_conflict",1.17517329440481,61,3.17464119266045,0.776
17,1,0.856,"negative_highly_familiar","conflict",1.22327980353249,62,2.93247376467715,1.495
17,1,1.023,"negative_familiar","conflict",1.27138631266017,63,3.00987563371216,0.856
17,1,0.966,"positive","no_conflict",1.31949282178786,64,2.98497712641549,1.023
17,1,0.877,"negative_unfamiliar","no_conflict",1.36759933091554,65,2.94299959336604,0.966
17,1,0.892,"positive","no_conflict",1.41570584004322,66,2.95036485437612,0.877
17,1,0.859,"negative_rc","conflict",1.4638123491709,67,2.93399316383124,0.892
17,1,1.114,"positive","no_conflict",1.51191885829859,68,3.04688519083771,0.859
17,0,1.298,"positive","no_conflict",1.56002536742627,69,3.11327469246435,1.114
17,1,0.865,"negative_familiar","conflict",1.60813187655395,70,2.93701610746481,1.298
17,1,0.872,"negative_unfamiliar","no_conflict",1.65623838568163,71,2.94051648493257,0.865
17,1,0.895,"positive","no_conflict",1.70434489480932,72,2.95182303531591,0.872
18,1,0.947,"negative_unfamiliar","no_conflict",-1.71121725325613,1,2.97634997900327,0.895
18,1,0.674,"positive","no_conflict",-1.66311074412844,2,2.82865989653532,0.947
18,1,0.617,"negative_rc","conflict",-1.61500423500076,3,2.79028516403324,0.674
18,1,0.641,"positive","no_conflict",-1.56689772587308,4,2.80685802951882,0.617
18,0,0.848,"negative_highly_familiar","conflict",-1.5187912167454,5,2.92839585225671,0.641
18,1,0.887,"positive","no_conflict",-1.47068470761772,6,2.94792361983173,0.848
18,1,0.614,"negative_familiar","conflict",-1.42257819849003,7,2.78816837114117,0.887
18,1,0.909,"positive","no_conflict",-1.37447168936235,8,2.95856388322197,0.614
18,1,0.676,"positive","no_conflict",-1.32636518023467,9,2.82994669594164,0.909
18,1,0.563,"negative_rc","conflict",-1.27825867110699,10,2.75050839485135,0.676
18,1,0.89,"negative_familiar","conflict",-1.2301521619793,11,2.94939000664491,0.563
18,1,0.954,"positive","no_conflict",-1.18204565285162,12,2.9795483747041,0.89
18,1,0.497,"positive","no_conflict",-1.13393914372394,13,2.69635638873333,0.954
18,1,0.696,"negative_rc","conflict",-1.08583263459626,14,2.84260923961056,0.497
18,1,0.775,"negative_highly_familiar","conflict",-1.03772612546857,15,2.88930170250631,0.696
18,0,0.934,"positive","no_conflict",-0.989619616340893,16,2.97034687623009,0.775
18,1,0.909,"positive","no_conflict",-0.94151310721321,17,2.95856388322197,0.934
18,1,0.716,"negative_unfamiliar","no_conflict",-0.893406598085528,18,2.85491302230786,0.909
18,1,1.06,"positive","no_conflict",-0.845300088957846,19,3.02530586526477,0.716
18,1,0.939,"negative_highly_familiar","conflict",-0.797193579830163,20,2.97266559226611,1.06
18,1,0.826,"positive","no_conflict",-0.749087070702481,21,2.91698004732038,0.939
18,1,0.697,"negative_familiar","conflict",-0.700980561574799,22,2.84323277809801,0.826
18,1,0.776,"negative_unfamiliar","no_conflict",-0.652874052447117,23,2.88986172125819,0.697
18,1,0.687,"positive","no_conflict",-0.604767543319434,24,2.83695673705955,0.776
18,1,0.734,"negative_highly_familiar","conflict",-0.556661034191752,25,2.86569605991607,0.687
18,1,0.733,"positive","no_conflict",-0.50855452506407,26,2.86510397464113,0.734
18,1,0.701,"negative_familiar","conflict",-0.460448015936387,27,2.84571801796666,0.733
18,0,0.588,"positive","no_conflict",-0.412341506808705,28,2.76937732607614,0.701
18,1,0.811,"positive","no_conflict",-0.364234997681023,29,2.90902085421116,0.588
18,1,0.778,"negative_rc","conflict",-0.316128488553341,30,2.89097959698969,0.811
18,1,0.737,"positive","no_conflict",-0.268021979425658,31,2.86746748785905,0.778
18,1,0.712,"negative_highly_familiar","conflict",-0.219915470297976,32,2.85247999363686,0.737
18,1,1.055,"positive","no_conflict",-0.171808961170294,33,3.02325245963371,0.712
18,1,0.631,"negative_unfamiliar","no_conflict",-0.123702452042611,34,2.80002935924413,1.055
18,1,0.67,"positive","no_conflict",-0.0755959429149292,35,2.82607480270083,0.631
18,1,0.581,"negative_unfamiliar","no_conflict",-0.0274894337872469,36,2.76417613239033,0.67
18,0,0.556,"positive","no_conflict",0.0206170753404354,37,2.74507479158206,0.581
18,1,1.179,"negative_rc","conflict",0.0687235844681176,38,3.07151380509509,0.556
18,0,1.242,"negative_highly_familiar","conflict",0.1168300935958,39,3.09412159584056,1.179
18,1,0.865,"positive","no_conflict",0.164936602723482,40,2.93701610746481,1.242
18,1,0.785,"positive","no_conflict",0.213043111851164,41,2.89486965674525,0.865
18,1,0.792,"negative_familiar","conflict",0.261149620978847,42,2.89872518158949,0.785
18,1,0.719,"negative_unfamiliar","no_conflict",0.309256130106529,43,2.85672889038288,0.792
18,1,1.046,"positive","no_conflict",0.357362639234211,44,3.01953168453126,0.719
18,1,0.517,"positive","no_conflict",0.405469148361894,45,2.71349054309394,1.046
18,1,1.388,"negative_rc","conflict",0.453575657489576,46,3.14238946611884,0.517
18,NA,NA,"positive","no_conflict",0.501682166617258,47,NA,1.388
18,1,0.571,"negative_familiar","conflict",0.54978867574494,48,2.75663610824585,NA
18,1,1.081,"negative_unfamiliar","no_conflict",0.597895184872623,49,3.03382569395331,0.571
18,1,1.168,"positive","no_conflict",0.646001694000305,50,3.06744284277638,1.081
18,1,0.592,"positive","no_conflict",0.694108203127987,51,2.77232170672292,1.168
18,1,0.735,"negative_highly_familiar","conflict",0.74221471225567,52,2.86628733908419,0.592
18,1,0.606,"negative_familiar","conflict",0.790321221383352,53,2.78247262416629,0.735
18,0,0.565,"positive","no_conflict",0.838427730511034,54,2.75204844781944,0.606
18,0,1.14,"positive","no_conflict",0.886534239638716,55,3.05690485133647,0.565
18,1,0.891,"negative_rc","conflict",0.934640748766399,56,2.94987770403687,1.14
18,1,0.81,"positive","no_conflict",0.982747257894081,57,2.90848501887865,0.891
18,1,0.89,"negative_rc","conflict",1.03085376702176,58,2.94939000664491,0.81
18,1,0.657,"positive","no_conflict",1.07896027614945,59,2.81756536955978,0.89
18,1,0.68,"negative_highly_familiar","conflict",1.12706678527713,60,2.83250891270624,0.657
