"subj_idx","response","rt","stim","cond","trial_z","rt_log_trim_grp","prev_rt"
1,1,1366,"negative_unfamiliar","no_conflict",-1.61500423500076,3.13545069934551,NA
1,1,757,"positive","no_conflict",-1.56689772587308,2.87909587950007,1.366
1,1,1028,"negative_rc","conflict",-1.5187912167454,3.01199311465926,0.757
1,1,900,"positive","no_conflict",-1.47068470761772,2.95424250943932,1.028
1,1,NA,"negative_highly_familiar","conflict",-1.42257819849003,NA,0.9
1,1,1282,"positive","no_conflict",-1.37447168936235,3.1078880251828,1.739
1,1,NA,"negative_familiar","conflict",-1.32636518023467,NA,1.282
1,1,952,"positive","no_conflict",-1.27825867110699,2.97863694838447,1.729
1,1,1063,"positive","no_conflict",-1.2301521619793,3.0265332645233,0.952
1,1,982,"negative_rc","conflict",-1.18204565285162,2.99211148778695,1.063
1,1,1237,"negative_familiar","conflict",-1.13393914372394,3.09236969962912,0.982
1,1,1309,"positive","no_conflict",-1.08583263459626,3.11693964655076,1.237
1,1,NA,"positive","no_conflict",-1.03772612546857,NA,1.309
1,1,851,"negative_rc","conflict",-0.989619616340893,2.92992956008459,2.148
1,1,938,"negative_highly_familiar","conflict",-0.94151310721321,2.97220283837906,0.851
1,1,1057,"positive","no_conflict",-0.893406598085528,3.02407498730743,0.938
1,0,1040,"positive","no_conflict",-0.845300088957846,3.01703333929878,1.057
1,1,999,"negative_unfamiliar","no_conflict",-0.797193579830163,2.99956548822598,1.04
1,1,791,"positive","no_conflict",-0.749087070702481,2.89817648349768,0.999
1,1,638,"negative_highly_familiar","conflict",-0.700980561574799,2.80482067872116,0.791
1,1,877,"positive","no_conflict",-0.652874052447117,2.94299959336604,0.638
1,1,924,"negative_familiar","conflict",-0.604767543319434,2.96567197122011,0.877
1,NA,NA,"negative_unfamiliar","no_conflict",-0.556661034191752,NA,0.924
1,1,1378,"positive","no_conflict",-0.50855452506407,3.13924921757161,NA
1,1,1593,"negative_highly_familiar","conflict",-0.460448015936387,3.20221577580113,1.378
1,1,920,"positive","no_conflict",-0.412341506808705,2.96378782734556,1.593
1,1,920,"negative_familiar","conflict",-0.364234997681023,2.96378782734556,0.92
1,0,927,"positive","no_conflict",-0.316128488553341,2.9670797341445,0.92
1,1,1550,"positive","no_conflict",-0.268021979425658,3.19033169817029,0.927
1,1,1197,"negative_rc","conflict",-0.219915470297976,3.07809415040641,1.55
1,1,772,"positive","no_conflict",-0.171808961170294,2.88761730033574,1.197
1,1,1267,"negative_highly_familiar","conflict",-0.123702452042611,3.10277661488344,0.772
1,1,642,"positive","no_conflict",-0.0755959429149292,2.80753502806885,1.267
1,1,1050,"negative_unfamiliar","no_conflict",-0.0274894337872469,3.02118929906994,0.642
1,1,1313,"positive","no_conflict",0.0206170753404354,3.11826472608948,1.05
1,1,1064,"negative_unfamiliar","no_conflict",0.0687235844681176,3.02694162795903,1.313
1,0,855,"positive","no_conflict",0.1168300935958,2.93196611472817,1.064
1,0,982,"negative_rc","conflict",0.164936602723482,2.99211148778695,0.855
1,1,1133,"negative_highly_familiar","conflict",0.213043111851164,3.0542299098634,0.982
1,1,1220,"positive","no_conflict",0.261149620978847,3.08635983067475,1.133
1,1,731,"positive","no_conflict",0.309256130106529,2.86391737695786,1.22
1,1,1363,"negative_familiar","conflict",0.357362639234211,3.13449585583467,0.731
1,1,683,"negative_unfamiliar","no_conflict",0.405469148361894,2.83442070368153,1.363
1,1,969,"positive","no_conflict",0.453575657489576,2.98632377705077,0.683
1,1,1256,"positive","no_conflict",0.501682166617258,3.09898963940118,0.969
1,0,NA,"negative_rc","conflict",0.54978867574494,NA,1.256
1,1,751,"positive","no_conflict",0.597895184872623,2.87563993700417,1.823
1,1,910,"negative_familiar","conflict",0.646001694000305,2.95904139232109,0.751
1,1,841,"negative_unfamiliar","no_conflict",0.694108203127987,2.92479599579791,0.91
1,0,1057,"positive","no_conflict",0.74221471225567,3.02407498730743,0.841
1,1,1464,"positive","no_conflict",0.790321221383352,3.16554107672237,1.057
1,1,831,"negative_highly_familiar","conflict",0.838427730511034,2.91960102378411,1.464
1,1,1038,"negative_familiar","conflict",0.886534239638716,3.01619735351244,0.831
1,1,1525,"positive","no_conflict",0.934640748766399,3.1832698436828,1.038
1,0,1444,"positive","no_conflict",0.982747257894081,3.15956719323362,1.525
1,1,1483,"negative_rc","conflict",1.03085376702176,3.17114115102838,1.444
1,0,1355,"positive","no_conflict",1.07896027614945,3.13193929521042,1.483
1,1,1050,"negative_rc","conflict",1.12706678527713,3.02118929906994,1.355
1,1,1361,"positive","no_conflict",1.17517329440481,3.13385812520333,1.05
1,1,856,"negative_highly_familiar","conflict",1.22327980353249,2.93247376467715,1.361
1,1,831,"positive","no_conflict",1.27138631266017,2.91960102378411,0.856
1,1,1190,"negative_highly_familiar","conflict",1.31949282178786,3.07554696139253,0.831
1,1,NA,"negative_familiar","conflict",1.36759933091554,NA,1.19
1,1,644,"positive","no_conflict",1.41570584004322,2.80888586735981,1.877
1,1,1172,"negative_unfamiliar","no_conflict",1.4638123491709,3.06892761168207,0.644
1,1,1619,"positive","no_conflict",1.51191885829859,3.20924684875337,1.172
1,1,1050,"negative_rc","conflict",1.56002536742627,3.02118929906994,1.619
1,1,1329,"positive","no_conflict",1.60813187655395,3.12352498094273,1.05
1,1,784,"positive","no_conflict",1.65623838568163,2.89431606268444,1.329
1,1,1399,"negative_familiar","conflict",1.70434489480932,3.14581771449183,0.784
1,1,1238,"negative_unfamiliar","no_conflict",1.752451403937,3.0927206446841,1.399
1,1,1141,"positive","no_conflict",1.80055791306468,3.05728564441821,1.238
2,1,534,"negative_unfamiliar","no_conflict",-1.61500423500076,2.72754125702856,1.141
2,0,854,"positive","no_conflict",-1.56689772587308,2.931457870689,0.534
2,1,573,"negative_rc","conflict",-1.5187912167454,2.75815462196739,0.854
2,1,1124,"positive","no_conflict",-1.47068470761772,3.05076631123304,0.573
2,1,1003,"negative_highly_familiar","conflict",-1.42257819849003,3.00130093302042,1.124
2,1,762,"positive","no_conflict",-1.37447168936235,2.8819549713396,1.003
2,1,625,"negative_familiar","conflict",-1.32636518023467,2.79588001734408,0.762
2,1,696,"positive","no_conflict",-1.27825867110699,2.84260923961056,0.625
2,1,903,"positive","no_conflict",-1.2301521619793,2.95568775031351,0.696
2,1,767,"negative_rc","conflict",-1.18204565285162,2.88479536394898,0.903
2,1,630,"negative_familiar","conflict",-1.13393914372394,2.79934054945358,0.767
2,1,813,"positive","no_conflict",-1.08583263459626,2.91009054559407,0.63
2,1,796,"positive","no_conflict",-1.03772612546857,2.90091306773767,0.813
2,1,1019,"negative_rc","conflict",-0.989619616340893,3.00817418400643,0.796
2,1,675,"negative_highly_familiar","conflict",-0.94151310721321,2.82930377283102,1.019
2,1,785,"positive","no_conflict",-0.893406598085528,2.89486965674525,0.675
2,1,1009,"positive","no_conflict",-0.845300088957846,3.00389116623691,0.785
2,1,809,"negative_unfamiliar","no_conflict",-0.797193579830163,2.90794852161227,1.009
2,1,952,"positive","no_conflict",-0.749087070702481,2.97863694838447,0.809
2,0,1390,"negative_highly_familiar","conflict",-0.700980561574799,3.14301480025409,0.952
2,1,678,"positive","no_conflict",-0.652874052447117,2.83122969386706,1.39
2,1,973,"negative_familiar","conflict",-0.604767543319434,2.98811284026835,0.678
2,1,740,"negative_unfamiliar","no_conflict",-0.556661034191752,2.86923171973098,0.973
2,1,715,"positive","no_conflict",-0.50855452506407,2.85430604180108,0.74
2,1,915,"negative_highly_familiar","conflict",-0.460448015936387,2.96142109406645,0.715
2,1,1514,"positive","no_conflict",-0.412341506808705,3.18012587516405,0.915
2,1,993,"negative_familiar","conflict",-0.364234997681023,2.99694924849538,1.514
2,1,712,"positive","no_conflict",-0.316128488553341,2.85247999363686,0.993
2,1,1055,"positive","no_conflict",-0.268021979425658,3.02325245963371,0.712
2,1,734,"negative_rc","conflict",-0.219915470297976,2.86569605991607,1.055
2,1,1077,"positive","no_conflict",-0.171808961170294,3.03221570329798,0.734
2,1,996,"negative_highly_familiar","conflict",-0.123702452042611,2.9982593384237,1.077
2,0,900,"positive","no_conflict",-0.0755959429149292,2.95424250943932,0.996
2,1,803,"negative_unfamiliar","no_conflict",-0.0274894337872469,2.90471554527868,0.9
2,1,1002,"positive","no_conflict",0.0206170753404354,3.00086772153123,0.803
2,1,889,"negative_unfamiliar","no_conflict",0.0687235844681176,2.94890176097021,1.002
2,1,752,"positive","no_conflict",0.1168300935958,2.87621784059164,0.889
2,1,783,"negative_rc","conflict",0.164936602723482,2.89376176205794,0.752
2,1,702,"negative_highly_familiar","conflict",0.213043111851164,2.84633711212981,0.783
2,1,766,"positive","no_conflict",0.261149620978847,2.8842287696326,0.702
2,1,765,"positive","no_conflict",0.309256130106529,2.88366143515362,0.766
2,1,756,"negative_familiar","conflict",0.357362639234211,2.87852179550121,0.765
2,1,827,"negative_unfamiliar","no_conflict",0.405469148361894,2.91750550955255,0.756
2,1,674,"positive","no_conflict",0.453575657489576,2.82865989653532,0.827
2,1,721,"positive","no_conflict",0.501682166617258,2.85793526471943,0.674
2,1,944,"negative_rc","conflict",0.54978867574494,2.97497199429807,0.721
2,1,1087,"positive","no_conflict",0.597895184872623,3.03622954408629,0.944
2,1,927,"negative_familiar","conflict",0.646001694000305,2.9670797341445,1.087
2,1,825,"negative_unfamiliar","no_conflict",0.694108203127987,2.91645394854993,0.927
2,1,936,"positive","no_conflict",0.74221471225567,2.97127584873811,0.825
2,1,976,"positive","no_conflict",0.790321221383352,2.98944981766669,0.936
2,1,911,"negative_highly_familiar","conflict",0.838427730511034,2.959518376973,0.976
2,1,1158,"negative_familiar","conflict",0.886534239638716,3.06370855939142,0.911
2,1,821,"positive","no_conflict",0.934640748766399,2.91434315711944,1.158
2,0,764,"positive","no_conflict",0.982747257894081,2.88309335857569,0.821
2,1,1059,"negative_rc","conflict",1.03085376702176,3.02489596010748,0.764
2,1,842,"positive","no_conflict",1.07896027614945,2.92531209149965,1.059
2,1,1354,"negative_rc","conflict",1.12706678527713,3.13161866434913,0.842
2,0,1321,"positive","no_conflict",1.17517329440481,3.12090281761453,1.354
2,1,720,"negative_highly_familiar","conflict",1.22327980353249,2.85733249643127,1.321
2,1,767,"positive","no_conflict",1.27138631266017,2.88479536394898,0.72
2,1,1086,"negative_highly_familiar","conflict",1.31949282178786,3.03582982525283,0.767
2,1,1541,"negative_familiar","conflict",1.36759933091554,3.18780263871842,1.086
2,1,980,"positive","no_conflict",1.41570584004322,2.99122607569249,1.541
2,1,755,"negative_unfamiliar","no_conflict",1.4638123491709,2.87794695162919,0.98
2,1,1003,"positive","no_conflict",1.51191885829859,3.00130093302042,0.755
2,1,986,"negative_rc","conflict",1.56002536742627,2.99387691494121,1.003
2,0,1705,"positive","no_conflict",1.60813187655395,3.23172438332852,0.986
2,1,848,"positive","no_conflict",1.65623838568163,2.92839585225671,1.705
2,1,1047,"negative_familiar","conflict",1.70434489480932,3.01994668167884,0.848
2,1,998,"negative_unfamiliar","no_conflict",1.752451403937,2.99913054128737,1.047
2,1,1069,"positive","no_conflict",1.80055791306468,3.02897770520878,0.998
3,1,404,"negative_unfamiliar","no_conflict",-1.61500423500076,2.60638136511061,1.069
3,1,387,"positive","no_conflict",-1.56689772587308,2.58771096501891,0.404
3,1,482,"negative_rc","conflict",-1.5187912167454,2.68304703823885,0.387
3,1,465,"positive","no_conflict",-1.47068470761772,2.66745295288995,0.482
3,1,392,"negative_highly_familiar","conflict",-1.42257819849003,2.59328606702046,0.465
3,1,431,"positive","no_conflict",-1.37447168936235,2.63447727016073,0.392
3,1,486,"negative_familiar","conflict",-1.32636518023467,2.68663626926229,0.431
3,0,430,"positive","no_conflict",-1.27825867110699,2.63346845557959,0.486
3,1,517,"positive","no_conflict",-1.2301521619793,2.71349054309394,0.43
3,1,692,"negative_rc","conflict",-1.18204565285162,2.84010609445676,0.517
3,1,555,"negative_familiar","conflict",-1.13393914372394,2.74429298312268,0.692
3,1,458,"positive","no_conflict",-1.08583263459626,2.66086547800387,0.555
3,1,529,"positive","no_conflict",-1.03772612546857,2.72345567203519,0.458
3,1,552,"negative_rc","conflict",-0.989619616340893,2.7419390777292,0.529
3,1,479,"negative_highly_familiar","conflict",-0.94151310721321,2.68033551341456,0.552
3,0,551,"positive","no_conflict",-0.893406598085528,2.74115159885178,0.479
3,1,598,"positive","no_conflict",-0.845300088957846,2.77670118398841,0.551
3,1,565,"negative_unfamiliar","no_conflict",-0.797193579830163,2.75204844781944,0.598
3,1,604,"positive","no_conflict",-0.749087070702481,2.78103693862113,0.565
3,1,467,"negative_highly_familiar","conflict",-0.700980561574799,2.66931688056611,0.604
3,1,650,"positive","no_conflict",-0.652874052447117,2.81291335664286,0.467
3,1,649,"negative_familiar","conflict",-0.604767543319434,2.81224469680037,0.65
3,1,801,"negative_unfamiliar","no_conflict",-0.556661034191752,2.90363251608424,0.649
3,1,640,"positive","no_conflict",-0.50855452506407,2.80617997398389,0.801
3,1,927,"negative_highly_familiar","conflict",-0.460448015936387,2.9670797341445,0.64
3,1,502,"positive","no_conflict",-0.412341506808705,2.70070371714502,0.927
3,1,557,"negative_familiar","conflict",-0.364234997681023,2.74585519517373,0.502
3,1,660,"positive","no_conflict",-0.316128488553341,2.81954393554187,0.557
3,1,515,"positive","no_conflict",-0.268021979425658,2.71180722904119,0.66
3,1,722,"negative_rc","conflict",-0.219915470297976,2.85853719756964,0.515
3,1,866,"positive","no_conflict",-0.171808961170294,2.93751789201735,0.722
3,0,489,"negative_highly_familiar","conflict",-0.123702452042611,2.68930885912362,0.866
3,1,528,"positive","no_conflict",-0.0755959429149292,2.72263392253381,0.489
3,1,575,"negative_unfamiliar","no_conflict",-0.0274894337872469,2.75966784468963,0.528
3,1,742,"positive","no_conflict",0.0206170753404354,2.87040390527903,0.575
3,1,437,"negative_unfamiliar","no_conflict",0.0687235844681176,2.64048143697042,0.742
3,1,524,"positive","no_conflict",0.1168300935958,2.71933128698373,0.437
3,1,547,"negative_rc","conflict",0.164936602723482,2.73798732633343,0.524
3,1,723,"negative_highly_familiar","conflict",0.213043111851164,2.85913829729453,0.547
3,1,498,"positive","no_conflict",0.261149620978847,2.69722934275972,0.723
3,1,433,"positive","no_conflict",0.309256130106529,2.63648789635337,0.498
3,1,512,"negative_familiar","conflict",0.357362639234211,2.70926996097583,0.433
3,1,591,"negative_unfamiliar","no_conflict",0.405469148361894,2.77158748088126,0.512
3,1,510,"positive","no_conflict",0.453575657489576,2.70757017609794,0.591
3,1,509,"positive","no_conflict",0.501682166617258,2.70671778233676,0.51
3,0,581,"negative_rc","conflict",0.54978867574494,2.76417613239033,0.509
3,1,388,"positive","no_conflict",0.597895184872623,2.58883172559421,0.581
3,1,563,"negative_familiar","conflict",0.646001694000305,2.75050839485135,0.388
3,1,434,"negative_unfamiliar","no_conflict",0.694108203127987,2.63748972951251,0.563
3,1,434,"positive","no_conflict",0.74221471225567,2.63748972951251,0.434
3,1,505,"positive","no_conflict",0.790321221383352,2.70329137811866,0.434
3,1,728,"negative_highly_familiar","conflict",0.838427730511034,2.86213137931304,0.505
3,1,551,"negative_familiar","conflict",0.886534239638716,2.74115159885178,0.728
3,1,454,"positive","no_conflict",0.934640748766399,2.6570558528571,0.551
3,0,597,"positive","no_conflict",0.982747257894081,2.77597433112937,0.454
3,1,708,"negative_rc","conflict",1.03085376702176,2.85003325768977,0.597
3,1,500,"positive","no_conflict",1.07896027614945,2.69897000433602,0.708
3,1,747,"negative_rc","conflict",1.12706678527713,2.8733206018154,0.5
3,1,514,"positive","no_conflict",1.17517329440481,2.71096311899528,0.747
3,1,521,"negative_highly_familiar","conflict",1.22327980353249,2.71683772329952,0.514
3,1,400,"positive","no_conflict",1.27138631266017,2.60205999132796,0.521
3,1,679,"negative_highly_familiar","conflict",1.31949282178786,2.8318697742805,0.4
3,1,638,"negative_familiar","conflict",1.36759933091554,2.80482067872116,0.679
3,1,541,"positive","no_conflict",1.41570584004322,2.73319726510657,0.638
3,1,597,"negative_unfamiliar","no_conflict",1.4638123491709,2.77597433112937,0.541
3,0,1180,"positive","no_conflict",1.51191885829859,3.07188200730613,0.597
3,1,467,"negative_rc","conflict",1.56002536742627,2.66931688056611,1.18
3,1,442,"positive","no_conflict",1.60813187655395,2.64542226934909,0.467
3,1,577,"positive","no_conflict",1.65623838568163,2.76117581315573,0.442
3,1,536,"negative_familiar","conflict",1.70434489480932,2.72916478969277,0.577
3,1,656,"negative_unfamiliar","no_conflict",1.752451403937,2.81690383937566,0.536
3,1,638,"positive","no_conflict",1.80055791306468,2.80482067872116,0.656
4,1,599,"negative_unfamiliar","no_conflict",-1.61500423500076,2.77742682238931,0.638
4,1,526,"positive","no_conflict",-1.56689772587308,2.72098574415374,0.599
4,1,590,"negative_rc","conflict",-1.5187912167454,2.77085201164214,0.526
4,1,501,"positive","no_conflict",-1.47068470761772,2.69983772586725,0.59
4,1,668,"negative_highly_familiar","conflict",-1.42257819849003,2.82477646247555,0.501
4,1,667,"positive","no_conflict",-1.37447168936235,2.82412583391655,0.668
4,1,666,"negative_familiar","conflict",-1.32636518023467,2.8234742291703,0.667
4,1,961,"positive","no_conflict",-1.27825867110699,2.98272338766855,0.666
4,1,864,"positive","no_conflict",-1.2301521619793,2.93651374247889,0.961
4,1,591,"negative_rc","conflict",-1.18204565285162,2.77158748088126,0.864
4,1,591,"negative_familiar","conflict",-1.13393914372394,2.77158748088126,0.591
4,1,774,"positive","no_conflict",-1.08583263459626,2.88874096068289,0.591
4,1,669,"positive","no_conflict",-1.03772612546857,2.82542611776782,0.774
4,1,764,"negative_rc","conflict",-0.989619616340893,2.88309335857569,0.669
4,1,627,"negative_highly_familiar","conflict",-0.94151310721321,2.79726754083072,0.764
4,1,626,"positive","no_conflict",-0.893406598085528,2.79657433321043,0.627
4,1,577,"positive","no_conflict",-0.845300088957846,2.76117581315573,0.626
4,1,705,"negative_unfamiliar","no_conflict",-0.797193579830163,2.8481891169914,0.577
4,1,504,"positive","no_conflict",-0.749087070702481,2.70243053644553,0.705
4,1,655,"negative_highly_familiar","conflict",-0.700980561574799,2.81624129999178,0.504
4,1,591,"positive","no_conflict",-0.652874052447117,2.77158748088126,0.655
4,1,630,"negative_familiar","conflict",-0.604767543319434,2.79934054945358,0.591
4,1,565,"negative_unfamiliar","no_conflict",-0.556661034191752,2.75204844781944,0.63
4,1,636,"positive","no_conflict",-0.50855452506407,2.80345711564841,0.565
4,1,700,"negative_highly_familiar","conflict",-0.460448015936387,2.84509804001426,0.636
4,1,547,"positive","no_conflict",-0.412341506808705,2.73798732633343,0.7
4,1,658,"negative_familiar","conflict",-0.364234997681023,2.81822589361396,0.547
4,1,657,"positive","no_conflict",-0.316128488553341,2.81756536955978,0.658
4,1,568,"positive","no_conflict",-0.268021979425658,2.75434833571102,0.657
4,1,623,"negative_rc","conflict",-0.219915470297976,2.79448804665917,0.568
4,1,606,"positive","no_conflict",-0.171808961170294,2.78247262416629,0.623
4,1,805,"negative_highly_familiar","conflict",-0.123702452042611,2.90579588036787,0.606
4,1,525,"positive","no_conflict",-0.0755959429149292,2.72015930340596,0.805
4,1,692,"negative_unfamiliar","no_conflict",-0.0274894337872469,2.84010609445676,0.525
4,1,563,"positive","no_conflict",0.0206170753404354,2.75050839485135,0.692
4,1,618,"negative_unfamiliar","no_conflict",0.0687235844681176,2.79098847508882,0.563
4,1,529,"positive","no_conflict",0.1168300935958,2.72345567203519,0.618
4,1,672,"negative_rc","conflict",0.164936602723482,2.82736927305383,0.529
4,1,647,"negative_highly_familiar","conflict",0.213043111851164,2.8109042806687,0.672
4,0,558,"positive","no_conflict",0.261149620978847,2.74663419893758,0.647
4,1,622,"positive","no_conflict",0.309256130106529,2.79379038469082,0.558
4,1,837,"negative_familiar","conflict",0.357362639234211,2.92272545799326,0.622
4,1,628,"negative_unfamiliar","no_conflict",0.405469148361894,2.7979596437372,0.837
4,1,523,"positive","no_conflict",0.453575657489576,2.71850168886727,0.628
4,1,538,"positive","no_conflict",0.501682166617258,2.73078227566639,0.523
4,1,745,"negative_rc","conflict",0.54978867574494,2.87215627274829,0.538
4,1,584,"positive","no_conflict",0.597895184872623,2.7664128471124,0.745
4,1,720,"negative_familiar","conflict",0.646001694000305,2.85733249643127,0.584
4,1,588,"negative_unfamiliar","no_conflict",0.694108203127987,2.76937732607614,0.72
4,1,523,"positive","no_conflict",0.74221471225567,2.71850168886727,0.588
4,1,618,"positive","no_conflict",0.790321221383352,2.79098847508882,0.523
4,1,553,"negative_highly_familiar","conflict",0.838427730511034,2.7427251313047,0.618
4,1,712,"negative_familiar","conflict",0.886534239638716,2.85247999363686,0.553
4,1,703,"positive","no_conflict",0.934640748766399,2.84695532501982,0.712
4,0,622,"positive","no_conflict",0.982747257894081,2.79379038469082,0.703
4,1,662,"negative_rc","conflict",1.03085376702176,2.8208579894397,0.622
4,1,813,"positive","no_conflict",1.07896027614945,2.91009054559407,0.662
4,1,900,"negative_rc","conflict",1.12706678527713,2.95424250943932,0.813
4,1,563,"positive","no_conflict",1.17517329440481,2.75050839485135,0.9
4,1,618,"negative_highly_familiar","conflict",1.22327980353249,2.79098847508882,0.563
4,0,537,"positive","no_conflict",1.27138631266017,2.72997428569956,0.618
4,1,608,"negative_highly_familiar","conflict",1.31949282178786,2.78390357927274,0.537
4,1,768,"negative_familiar","conflict",1.36759933091554,2.88536122003151,0.608
4,1,679,"positive","no_conflict",1.41570584004322,2.8318697742805,0.768
4,1,694,"negative_unfamiliar","no_conflict",1.4638123491709,2.84135947045485,0.679
4,1,542,"positive","no_conflict",1.51191885829859,2.73399928653839,0.694
4,1,605,"negative_rc","conflict",1.56002536742627,2.78175537465247,0.542
4,1,476,"positive","no_conflict",1.60813187655395,2.67760695272049,0.605
4,1,603,"positive","no_conflict",1.65623838568163,2.78031731214015,0.476
4,1,635,"negative_familiar","conflict",1.70434489480932,2.80277372529198,0.603
4,1,666,"negative_unfamiliar","no_conflict",1.752451403937,2.8234742291703,0.635
4,1,641,"positive","no_conflict",1.80055791306468,2.80685802951882,0.666
5,1,513,"negative_unfamiliar","no_conflict",-1.71121725325613,2.71011736511182,0.641
5,1,520,"positive","no_conflict",-1.66311074412844,2.7160033436348,0.513
5,1,616,"negative_rc","conflict",-1.61500423500076,2.78958071216443,0.52
5,1,663,"positive","no_conflict",-1.56689772587308,2.82151352840477,0.616
5,0,1118,"negative_highly_familiar","conflict",-1.5187912167454,3.0484418035504,0.663
5,1,637,"positive","no_conflict",-1.47068470761772,2.80413943233535,1.118
5,1,564,"negative_familiar","conflict",-1.42257819849003,2.75127910398334,0.637
5,1,691,"positive","no_conflict",-1.37447168936235,2.8394780473742,0.564
5,1,538,"positive","no_conflict",-1.32636518023467,2.73078227566639,0.691
5,1,673,"negative_rc","conflict",-1.27825867110699,2.82801506422398,0.538
5,1,601,"negative_familiar","conflict",-1.2301521619793,2.77887447200274,0.673
5,1,744,"positive","no_conflict",-1.18204565285162,2.87157293554588,0.601
5,1,559,"positive","no_conflict",-1.13393914372394,2.74741180788642,0.744
5,1,638,"negative_rc","conflict",-1.08583263459626,2.80482067872116,0.559
5,1,525,"negative_highly_familiar","conflict",-1.03772612546857,2.72015930340596,0.638
5,1,932,"positive","no_conflict",-0.989619616340893,2.96941591235398,0.525
5,1,667,"positive","no_conflict",-0.94151310721321,2.82412583391655,0.932
5,1,611,"negative_unfamiliar","no_conflict",-0.893406598085528,2.78604121024255,0.667
5,1,547,"positive","no_conflict",-0.845300088957846,2.73798732633343,0.611
5,1,713,"negative_highly_familiar","conflict",-0.797193579830163,2.85308952985187,0.547
5,1,560,"positive","no_conflict",-0.749087070702481,2.7481880270062,0.713
5,1,592,"negative_familiar","conflict",-0.700980561574799,2.77232170672292,0.56
5,1,695,"negative_unfamiliar","no_conflict",-0.652874052447117,2.84198480459011,0.592
5,1,877,"positive","no_conflict",-0.604767543319434,2.94299959336604,0.695
5,1,685,"negative_highly_familiar","conflict",-0.556661034191752,2.83569057149243,0.877
5,1,541,"positive","no_conflict",-0.50855452506407,2.73319726510657,0.685
5,1,628,"negative_familiar","conflict",-0.460448015936387,2.7979596437372,0.541
5,1,691,"positive","no_conflict",-0.412341506808705,2.8394780473742,0.628
5,1,810,"positive","no_conflict",-0.364234997681023,2.90848501887865,0.691
5,1,977,"negative_rc","conflict",-0.316128488553341,2.98989456371877,0.81
5,1,1112,"positive","no_conflict",-0.268021979425658,3.04610478724604,0.977
5,1,599,"negative_highly_familiar","conflict",-0.219915470297976,2.77742682238931,1.112
5,1,614,"positive","no_conflict",-0.171808961170294,2.78816837114117,0.599
5,1,590,"negative_unfamiliar","no_conflict",-0.123702452042611,2.77085201164214,0.614
5,1,669,"positive","no_conflict",-0.0755959429149292,2.82542611776782,0.59
5,1,596,"negative_unfamiliar","no_conflict",-0.0274894337872469,2.77524625974024,0.669
5,1,643,"positive","no_conflict",0.0206170753404354,2.80821097292422,0.596
5,0,714,"negative_rc","conflict",0.0687235844681176,2.85369821177617,0.643
5,1,945,"negative_highly_familiar","conflict",0.1168300935958,2.97543180850926,0.714
5,1,760,"positive","no_conflict",0.164936602723482,2.88081359228079,0.945
5,1,832,"positive","no_conflict",0.213043111851164,2.92012332629072,0.76
5,1,767,"negative_familiar","conflict",0.261149620978847,2.88479536394898,0.832
5,1,710,"negative_unfamiliar","no_conflict",0.309256130106529,2.85125834871908,0.767
5,1,821,"positive","no_conflict",0.357362639234211,2.91434315711944,0.71
5,1,676,"positive","no_conflict",0.405469148361894,2.82994669594164,0.821
5,1,963,"negative_rc","conflict",0.453575657489576,2.98362628712453,0.676
5,1,890,"positive","no_conflict",0.501682166617258,2.94939000664491,0.963
5,1,625,"negative_familiar","conflict",0.54978867574494,2.79588001734408,0.89
5,1,504,"negative_unfamiliar","no_conflict",0.597895184872623,2.70243053644553,0.625
5,1,463,"positive","no_conflict",0.646001694000305,2.66558099101795,0.504
5,1,494,"positive","no_conflict",0.694108203127987,2.69372694892365,0.463
5,1,773,"negative_highly_familiar","conflict",0.74221471225567,2.88817949391832,0.494
5,1,588,"negative_familiar","conflict",0.790321221383352,2.76937732607614,0.773
5,1,547,"positive","no_conflict",0.838427730511034,2.73798732633343,0.588
5,0,810,"positive","no_conflict",0.886534239638716,2.90848501887865,0.547
5,1,1138,"negative_rc","conflict",0.934640748766399,3.05614226205905,0.81
5,1,761,"positive","no_conflict",0.982747257894081,2.88138465677057,1.138
5,1,560,"negative_rc","conflict",1.03085376702176,2.7481880270062,0.761
5,1,711,"positive","no_conflict",1.07896027614945,2.85186960072977,0.56
5,1,598,"negative_highly_familiar","conflict",1.12706678527713,2.77670118398841,0.711
5,1,645,"positive","no_conflict",1.17517329440481,2.80955971463527,0.598
5,1,700,"negative_highly_familiar","conflict",1.22327980353249,2.84509804001426,0.645
5,1,795,"negative_familiar","conflict",1.27138631266017,2.90036712865647,0.7
5,1,851,"positive","no_conflict",1.31949282178786,2.92992956008459,0.795
5,1,570,"negative_unfamiliar","no_conflict",1.36759933091554,2.75587485567249,0.851
5,1,609,"positive","no_conflict",1.41570584004322,2.78461729263288,0.57
5,1,552,"negative_rc","conflict",1.4638123491709,2.7419390777292,0.609
5,1,751,"positive","no_conflict",1.51191885829859,2.87563993700417,0.552
5,1,478,"positive","no_conflict",1.56002536742627,2.67942789661212,0.751
5,1,653,"negative_familiar","conflict",1.60813187655395,2.81491318127507,0.478
5,1,700,"negative_unfamiliar","no_conflict",1.65623838568163,2.84509804001426,0.653
5,1,764,"positive","no_conflict",1.70434489480932,2.88309335857569,0.7
6,1,465,"negative_unfamiliar","no_conflict",-1.71121725325613,2.66745295288995,0.764
6,1,712,"positive","no_conflict",-1.66311074412844,2.85247999363686,0.465
6,1,487,"negative_rc","conflict",-1.61500423500076,2.68752896121463,0.712
6,1,542,"positive","no_conflict",-1.56689772587308,2.73399928653839,0.487
6,1,533,"negative_highly_familiar","conflict",-1.5187912167454,2.72672720902657,0.542
6,1,949,"positive","no_conflict",-1.47068470761772,2.97726621242729,0.533
6,1,644,"negative_familiar","conflict",-1.42257819849003,2.80888586735981,0.949
6,1,971,"positive","no_conflict",-1.37447168936235,2.987219229908,0.644
6,1,578,"positive","no_conflict",-1.32636518023467,2.76192783842053,0.971
6,1,737,"negative_rc","conflict",-1.27825867110699,2.86746748785905,0.578
6,1,744,"negative_familiar","conflict",-1.2301521619793,2.87157293554588,0.737
6,1,455,"positive","no_conflict",-1.18204565285162,2.65801139665711,0.744
6,1,695,"positive","no_conflict",-1.13393914372394,2.84198480459011,0.455
6,1,678,"negative_rc","conflict",-1.08583263459626,2.83122969386706,0.695
6,1,565,"negative_highly_familiar","conflict",-1.03772612546857,2.75204844781944,0.678
6,1,596,"positive","no_conflict",-0.989619616340893,2.77524625974024,0.565
6,1,771,"positive","no_conflict",-0.94151310721321,2.88705437805096,0.596
6,1,634,"negative_unfamiliar","no_conflict",-0.893406598085528,2.80208925788173,0.771
6,1,641,"positive","no_conflict",-0.845300088957846,2.80685802951882,0.634
6,1,784,"negative_highly_familiar","conflict",-0.797193579830163,2.89431606268444,0.641
6,1,776,"positive","no_conflict",-0.749087070702481,2.88986172125819,0.784
6,1,839,"negative_familiar","conflict",-0.700980561574799,2.9237619608287,0.776
6,1,702,"negative_unfamiliar","no_conflict",-0.652874052447117,2.84633711212981,0.839
6,1,574,"positive","no_conflict",-0.604767543319434,2.75891189239797,0.702
6,1,980,"negative_highly_familiar","conflict",-0.556661034191752,2.99122607569249,0.574
6,1,636,"positive","no_conflict",-0.50855452506407,2.80345711564841,0.98
6,1,755,"negative_familiar","conflict",-0.460448015936387,2.87794695162919,0.636
6,1,499,"positive","no_conflict",-0.412341506808705,2.69810054562339,0.755
6,1,618,"positive","no_conflict",-0.364234997681023,2.79098847508882,0.499
6,0,505,"negative_rc","conflict",-0.316128488553341,2.70329137811866,0.618
6,1,704,"positive","no_conflict",-0.268021979425658,2.84757265914211,0.505
6,1,991,"negative_highly_familiar","conflict",-0.219915470297976,2.99607365448528,0.704
6,1,750,"positive","no_conflict",-0.171808961170294,2.8750612633917,0.991
6,1,797,"negative_unfamiliar","no_conflict",-0.123702452042611,2.90145832139611,0.75
6,1,500,"positive","no_conflict",-0.0755959429149292,2.69897000433602,0.797
6,1,612,"negative_unfamiliar","no_conflict",-0.0274894337872469,2.78675142214556,0.5
6,1,555,"positive","no_conflict",0.0206170753404354,2.74429298312268,0.612
6,1,586,"negative_rc","conflict",0.0687235844681176,2.76789761601809,0.555
6,1,665,"negative_highly_familiar","conflict",0.1168300935958,2.8228216453031,0.586
6,1,736,"positive","no_conflict",0.164936602723482,2.8668778143375,0.665
6,1,607,"positive","no_conflict",0.213043111851164,2.78318869107526,0.736
6,1,574,"negative_familiar","conflict",0.261149620978847,2.75891189239797,0.607
6,1,622,"negative_unfamiliar","no_conflict",0.309256130106529,2.79379038469082,0.574
6,1,813,"positive","no_conflict",0.357362639234211,2.91009054559407,0.622
6,1,820,"positive","no_conflict",0.405469148361894,2.91381385238372,0.813
6,1,1251,"negative_rc","conflict",0.453575657489576,3.09725730969342,0.82
6,1,690,"positive","no_conflict",0.501682166617258,2.83884909073726,1.251
6,1,841,"negative_familiar","conflict",0.54978867574494,2.92479599579791,0.69
6,1,891,"negative_unfamiliar","no_conflict",0.597895184872623,2.94987770403687,0.841
6,0,922,"positive","no_conflict",0.646001694000305,2.96473092105363,0.891
6,1,505,"positive","no_conflict",0.694108203127987,2.70329137811866,0.922
6,1,552,"negative_highly_familiar","conflict",0.74221471225567,2.7419390777292,0.505
6,1,631,"negative_familiar","conflict",0.790321221383352,2.80002935924413,0.552
6,0,783,"positive","no_conflict",0.838427730511034,2.89376176205794,0.631
6,0,614,"positive","no_conflict",0.886534239638716,2.78816837114117,0.783
6,1,733,"negative_rc","conflict",0.934640748766399,2.86510397464113,0.614
6,1,988,"positive","no_conflict",0.982747257894081,2.99475694458763,0.733
6,1,827,"negative_rc","conflict",1.03085376702176,2.91750550955255,0.988
6,1,706,"positive","no_conflict",1.07896027614945,2.8488047010518,0.827
6,1,745,"negative_highly_familiar","conflict",1.12706678527713,2.87215627274829,0.706
6,1,1512,"positive","no_conflict",1.17517329440481,3.17955179116519,0.745
6,1,584,"negative_highly_familiar","conflict",1.22327980353249,2.7664128471124,1.512
6,1,1359,"negative_familiar","conflict",1.27138631266017,3.13321945673249,0.584
6,1,526,"positive","no_conflict",1.31949282178786,2.72098574415374,1.359
6,1,461,"negative_unfamiliar","no_conflict",1.36759933091554,2.66370092538965,0.526
6,1,692,"positive","no_conflict",1.41570584004322,2.84010609445676,0.461
6,1,707,"negative_rc","conflict",1.4638123491709,2.8494194137969,0.692
6,1,690,"positive","no_conflict",1.51191885829859,2.83884909073726,0.707
6,0,946,"positive","no_conflict",1.56002536742627,2.97589113640179,0.69
6,1,721,"negative_familiar","conflict",1.60813187655395,2.85793526471943,0.946
6,1,1352,"negative_unfamiliar","no_conflict",1.65623838568163,3.13097669160562,0.721
6,1,559,"positive","no_conflict",1.70434489480932,2.74741180788642,1.352
7,1,515,"negative_unfamiliar","no_conflict",-1.71121725325613,2.71180722904119,0.559
7,1,466,"positive","no_conflict",-1.66311074412844,2.66838591669,0.515
7,0,1337,"negative_rc","conflict",-1.61500423500076,3.12613140726198,0.466
7,0,496,"positive","no_conflict",-1.56689772587308,2.6954816764902,1.337
7,1,808,"negative_highly_familiar","conflict",-1.5187912167454,2.90741136077459,0.496
7,1,711,"positive","no_conflict",-1.47068470761772,2.85186960072977,0.808
7,1,614,"negative_familiar","conflict",-1.42257819849003,2.78816837114117,0.711
7,0,765,"positive","no_conflict",-1.37447168936235,2.88366143515362,0.614
7,1,484,"positive","no_conflict",-1.32636518023467,2.68484536164441,0.765
7,1,1043,"negative_rc","conflict",-1.27825867110699,3.01828430842653,0.484
7,1,698,"negative_familiar","conflict",-1.2301521619793,2.84385542262316,1.043
7,0,1298,"positive","no_conflict",-1.18204565285162,3.11327469246435,0.698
7,1,761,"positive","no_conflict",-1.13393914372394,2.88138465677057,1.298
7,1,1472,"negative_rc","conflict",-1.08583263459626,3.16790781000148,0.761
7,1,847,"negative_highly_familiar","conflict",-1.03772612546857,2.92788341033071,1.472
7,1,550,"positive","no_conflict",-0.989619616340893,2.74036268949424,0.847
7,1,525,"positive","no_conflict",-0.94151310721321,2.72015930340596,0.55
7,1,972,"negative_unfamiliar","no_conflict",-0.893406598085528,2.98766626492627,0.525
7,1,699,"positive","no_conflict",-0.845300088957846,2.84447717574568,0.972
7,0,675,"negative_highly_familiar","conflict",-0.797193579830163,2.82930377283102,0.699
7,1,666,"positive","no_conflict",-0.749087070702481,2.8234742291703,0.675
7,1,809,"negative_familiar","conflict",-0.700980561574799,2.90794852161227,0.666
7,1,576,"negative_unfamiliar","no_conflict",-0.652874052447117,2.76042248342321,0.809
7,0,487,"positive","no_conflict",-0.604767543319434,2.68752896121463,0.576
7,1,1582,"negative_highly_familiar","conflict",-0.556661034191752,3.19920647916166,0.487
7,1,598,"positive","no_conflict",-0.50855452506407,2.77670118398841,1.582
7,1,1677,"negative_familiar","conflict",-0.460448015936387,3.22453306260609,0.598
7,1,604,"positive","no_conflict",-0.412341506808705,2.78103693862113,1.677
7,1,588,"positive","no_conflict",-0.364234997681023,2.76937732607614,0.604
7,1,938,"negative_rc","conflict",-0.316128488553341,2.97220283837906,0.588
7,0,1073,"positive","no_conflict",-0.268021979425658,3.03059972196595,0.938
7,1,929,"negative_highly_familiar","conflict",-0.219915470297976,2.96801571399364,1.073
7,1,600,"positive","no_conflict",-0.171808961170294,2.77815125038364,0.929
7,0,431,"negative_unfamiliar","no_conflict",-0.123702452042611,2.63447727016073,0.6
7,1,695,"positive","no_conflict",-0.0755959429149292,2.84198480459011,0.431
7,1,638,"negative_unfamiliar","no_conflict",-0.0274894337872469,2.80482067872116,0.695
7,1,573,"positive","no_conflict",0.0206170753404354,2.75815462196739,0.638
7,NA,NA,"negative_rc","conflict",0.0687235844681176,NA,0.573
7,1,987,"negative_highly_familiar","conflict",0.1168300935958,2.99431715266964,0.3
7,1,954,"positive","no_conflict",0.164936602723482,2.9795483747041,0.987
7,1,753,"positive","no_conflict",0.213043111851164,2.8767949762007,0.954
7,0,1049,"negative_familiar","conflict",0.261149620978847,3.02077548819356,0.753
7,1,640,"negative_unfamiliar","no_conflict",0.309256130106529,2.80617997398389,1.049
7,1,607,"positive","no_conflict",0.357362639234211,2.78318869107526,0.64
7,1,1238,"positive","no_conflict",0.405469148361894,3.0927206446841,0.607
7,0,1413,"negative_rc","conflict",0.453575657489576,3.15014216184856,1.238
7,1,860,"positive","no_conflict",0.501682166617258,2.93449845124357,1.413
7,1,1187,"negative_familiar","conflict",0.54978867574494,3.07445071895459,0.86
7,1,849,"negative_unfamiliar","no_conflict",0.597895184872623,2.92890769024395,1.187
7,1,512,"positive","no_conflict",0.646001694000305,2.70926996097583,0.849
7,1,615,"positive","no_conflict",0.694108203127987,2.78887511577542,0.512
7,1,670,"negative_highly_familiar","conflict",0.74221471225567,2.82607480270083,0.615
7,1,1118,"negative_familiar","conflict",0.790321221383352,3.0484418035504,0.67
7,1,773,"positive","no_conflict",0.838427730511034,2.88817949391832,1.118
7,0,812,"positive","no_conflict",0.886534239638716,2.90955602924118,0.773
7,1,1035,"negative_rc","conflict",0.934640748766399,3.01494034979294,0.812
7,1,722,"positive","no_conflict",0.982747257894081,2.85853719756964,1.035
7,1,641,"negative_rc","conflict",1.03085376702176,2.80685802951882,0.722
7,1,688,"positive","no_conflict",1.07896027614945,2.83758843823551,0.641
7,1,1247,"negative_highly_familiar","conflict",1.12706678527713,3.09586645347854,0.688
7,1,1071,"positive","no_conflict",1.17517329440481,3.02978947083186,1.247
7,1,814,"negative_highly_familiar","conflict",1.22327980353249,2.9106244048892,1.071
7,1,1149,"negative_familiar","conflict",1.27138631266017,3.06032002868829,0.814
7,1,1076,"positive","no_conflict",1.31949282178786,3.03181227133037,1.149
7,1,795,"negative_unfamiliar","no_conflict",1.36759933091554,2.90036712865647,1.076
7,1,594,"positive","no_conflict",1.41570584004322,2.77378644498119,0.795
7,1,969,"negative_rc","conflict",1.4638123491709,2.98632377705077,0.594
7,1,1009,"positive","no_conflict",1.51191885829859,3.00389116623691,0.969
7,1,520,"positive","no_conflict",1.56002536742627,2.7160033436348,1.009
7,1,863,"negative_familiar","conflict",1.60813187655395,2.93601079571521,0.52
7,NA,NA,"negative_unfamiliar","no_conflict",1.65623838568163,NA,0.863
7,0,1014,"positive","no_conflict",1.70434489480932,3.00603795499732,NA
8,1,887,"negative_unfamiliar","no_conflict",-1.71121725325613,2.94792361983173,1.014
8,1,1110,"positive","no_conflict",-1.66311074412844,3.04532297878666,0.887
8,1,1109,"negative_rc","conflict",-1.61500423500076,3.04493154614916,1.11
8,1,1076,"positive","no_conflict",-1.56689772587308,3.03181227133037,1.109
8,1,1179,"negative_highly_familiar","conflict",-1.5187912167454,3.07151380509509,1.076
8,1,1514,"positive","no_conflict",-1.47068470761772,3.18012587516405,1.179
8,1,1209,"negative_familiar","conflict",-1.42257819849003,3.08242630086077,1.514
8,1,1089,"positive","no_conflict",-1.37447168936235,3.03702787975578,1.209
8,1,1088,"positive","no_conflict",-1.32636518023467,3.03662889536216,1.089
8,1,1175,"negative_rc","conflict",-1.27825867110699,3.07003786660776,1.088
8,1,1606,"negative_familiar","conflict",-1.2301521619793,3.20574554094266,1.175
8,1,853,"positive","no_conflict",-1.18204565285162,2.93094903116752,1.606
8,1,1060,"positive","no_conflict",-1.13393914372394,3.02530586526477,0.853
8,1,1043,"negative_rc","conflict",-1.08583263459626,3.01828430842653,1.06
8,1,1659,"negative_highly_familiar","conflict",-1.03772612546857,3.21984638602436,1.043
8,1,659,"positive","no_conflict",-0.989619616340893,2.81888541459401,1.659
8,1,930,"positive","no_conflict",-0.94151310721321,2.96848294855394,0.659
8,1,920,"negative_unfamiliar","no_conflict",-0.893406598085528,2.96378782734556,0.93
8,1,640,"positive","no_conflict",-0.845300088957846,2.80617997398389,0.92
8,1,1710,"negative_highly_familiar","conflict",-0.797193579830163,3.23299611039215,0.64
8,1,742,"positive","no_conflict",-0.749087070702481,2.87040390527903,1.71
8,1,1061,"negative_familiar","conflict",-0.700980561574799,3.02571538390134,0.742
8,1,981,"negative_unfamiliar","no_conflict",-0.652874052447117,2.99166900737995,1.061
8,1,1204,"positive","no_conflict",-0.604767543319434,3.08062648692181,0.981
8,1,731,"negative_highly_familiar","conflict",-0.556661034191752,2.86391737695786,1.204
8,1,826,"positive","no_conflict",-0.50855452506407,2.91698004732038,0.731
8,1,1049,"negative_familiar","conflict",-0.460448015936387,3.02077548819356,0.826
8,1,1016,"positive","no_conflict",-0.412341506808705,3.0068937079479,1.049
8,1,855,"positive","no_conflict",-0.364234997681023,2.93196611472817,1.016
8,1,927,"negative_rc","conflict",-0.316128488553341,2.9670797341445,0.855
8,1,918,"positive","no_conflict",-0.268021979425658,2.96284268120124,0.927
8,1,877,"negative_highly_familiar","conflict",-0.219915470297976,2.94299959336604,0.918
8,1,724,"positive","no_conflict",-0.171808961170294,2.85973856619715,0.877
8,1,963,"negative_unfamiliar","no_conflict",-0.123702452042611,2.98362628712453,0.724
8,1,818,"positive","no_conflict",-0.0755959429149292,2.91275330367132,0.963
8,1,745,"negative_unfamiliar","no_conflict",-0.0274894337872469,2.87215627274829,0.818
8,1,1048,"positive","no_conflict",0.0206170753404354,3.02036128264771,0.745
8,1,840,"negative_rc","conflict",0.0687235844681176,2.92427928606188,1.048
8,1,1119,"negative_highly_familiar","conflict",0.1168300935958,3.04883008652835,0.84
8,1,814,"positive","no_conflict",0.164936602723482,2.9106244048892,1.119
8,0,1221,"positive","no_conflict",0.213043111851164,3.08671566394488,0.814
8,0,644,"negative_familiar","conflict",0.261149620978847,2.80888586735981,1.221
8,1,1539,"negative_unfamiliar","no_conflict",0.309256130106529,3.18723861983148,0.644
8,1,1130,"positive","no_conflict",0.357362639234211,3.05307844348342,1.539
8,1,866,"positive","no_conflict",0.405469148361894,2.93751789201735,1.13
8,1,1585,"negative_rc","conflict",0.453575657489576,3.20002926655377,0.866
8,1,856,"positive","no_conflict",0.501682166617258,2.93247376467715,1.585
8,1,1375,"negative_familiar","conflict",0.54978867574494,3.13830269816628,0.856
8,1,1241,"negative_unfamiliar","no_conflict",0.597895184872623,3.09377178149873,1.375
8,1,1272,"positive","no_conflict",0.646001694000305,3.1044871113124,1.241
8,1,959,"positive","no_conflict",0.694108203127987,2.98181860717066,1.272
8,1,1038,"negative_highly_familiar","conflict",0.74221471225567,3.01619735351244,0.959
8,1,886,"negative_familiar","conflict",0.790321221383352,2.94743372188705,1.038
8,1,1037,"positive","no_conflict",0.838427730511034,3.01577875638904,0.886
8,0,1148,"positive","no_conflict",0.886534239638716,3.05994188806195,1.037
8,0,987,"negative_rc","conflict",0.934640748766399,2.99431715266964,1.148
8,1,NA,"positive","no_conflict",0.982747257894081,NA,0.987
8,1,905,"negative_rc","conflict",1.03085376702176,2.9566485792052,1.738
8,1,1024,"positive","no_conflict",1.07896027614945,3.01029995663981,0.905
8,1,1175,"negative_highly_familiar","conflict",1.12706678527713,3.07003786660776,1.024
8,1,671,"positive","no_conflict",1.17517329440481,2.82672252016899,1.175
8,1,1590,"negative_highly_familiar","conflict",1.22327980353249,3.20139712432045,0.671
8,0,973,"negative_familiar","conflict",1.27138631266017,2.98811284026835,1.59
8,1,932,"positive","no_conflict",1.31949282178786,2.96941591235398,0.973
8,1,803,"negative_unfamiliar","no_conflict",1.36759933091554,2.90471554527868,0.932
8,1,618,"positive","no_conflict",1.41570584004322,2.79098847508882,0.803
8,1,1033,"negative_rc","conflict",1.4638123491709,3.01410032151962,0.618
8,1,777,"positive","no_conflict",1.51191885829859,2.89042101880091,1.033
8,1,640,"positive","no_conflict",1.56002536742627,2.80617997398389,0.777
8,1,1215,"negative_familiar","conflict",1.60813187655395,3.08457627793433,0.64
8,1,1030,"negative_unfamiliar","no_conflict",1.65623838568163,3.01283722470517,1.215
8,1,637,"positive","no_conflict",1.70434489480932,2.80413943233535,1.03
9,1,672,"negative_unfamiliar","no_conflict",-1.71121725325613,2.82736927305383,0.637
9,1,535,"positive","no_conflict",-1.66311074412844,2.72835378202123,0.672
9,1,718,"negative_rc","conflict",-1.61500423500076,2.8561244442423,0.535
9,1,1022,"positive","no_conflict",-1.56689772587308,3.00945089579869,0.718
9,1,613,"negative_highly_familiar","conflict",-1.5187912167454,2.78746047451842,1.022
9,1,532,"positive","no_conflict",-1.47068470761772,2.72591163229505,0.613
9,1,819,"negative_familiar","conflict",-1.42257819849003,2.91328390176042,0.532
9,1,1090,"positive","no_conflict",-1.37447168936235,3.03742649794062,0.819
9,1,697,"positive","no_conflict",-1.32636518023467,2.84323277809801,1.09
9,1,1224,"negative_rc","conflict",-1.27825867110699,3.08778141780954,0.697
9,1,1048,"negative_familiar","conflict",-1.2301521619793,3.02036128264771,1.224
9,1,751,"positive","no_conflict",-1.18204565285162,2.87563993700417,1.048
9,1,894,"positive","no_conflict",-1.13393914372394,2.95133751879592,0.751
9,1,725,"negative_rc","conflict",-1.08583263459626,2.86033800657099,0.894
9,1,692,"negative_highly_familiar","conflict",-1.03772612546857,2.84010609445676,0.725
9,1,947,"positive","no_conflict",-0.989619616340893,2.97634997900327,0.692
9,1,490,"positive","no_conflict",-0.94151310721321,2.69019608002851,0.947
9,1,953,"negative_unfamiliar","no_conflict",-0.893406598085528,2.97909290063833,0.49
9,1,1209,"positive","no_conflict",-0.845300088957846,3.08242630086077,0.953
9,1,NA,"negative_highly_familiar","conflict",-0.797193579830163,NA,1.209
9,1,807,"positive","no_conflict",-0.749087070702481,2.90687353472207,2.16
9,1,1014,"negative_familiar","conflict",-0.700980561574799,3.00603795499732,0.807
9,1,725,"negative_unfamiliar","no_conflict",-0.652874052447117,2.86033800657099,1.014
9,1,636,"positive","no_conflict",-0.604767543319434,2.80345711564841,0.725
9,1,1187,"negative_highly_familiar","conflict",-0.556661034191752,3.07445071895459,0.636
9,1,651,"positive","no_conflict",-0.50855452506407,2.81358098856819,1.187
9,1,1034,"negative_familiar","conflict",-0.460448015936387,3.01452053875792,0.651
9,1,1633,"positive","no_conflict",-0.412341506808705,3.21298618473667,1.034
9,1,640,"positive","no_conflict",-0.364234997681023,2.80617997398389,1.633
9,1,671,"negative_rc","conflict",-0.316128488553341,2.82672252016899,0.64
9,1,766,"positive","no_conflict",-0.268021979425658,2.8842287696326,0.671
9,1,709,"negative_highly_familiar","conflict",-0.219915470297976,2.85064623518307,0.766
9,1,860,"positive","no_conflict",-0.171808961170294,2.93449845124357,0.709
9,1,884,"negative_unfamiliar","no_conflict",-0.123702452042611,2.94645226501307,0.86
9,1,883,"positive","no_conflict",-0.0755959429149292,2.94596070357757,0.884
9,1,634,"negative_unfamiliar","no_conflict",-0.0274894337872469,2.80208925788173,0.883
9,1,633,"positive","no_conflict",0.0206170753404354,2.80140371001736,0.634
9,1,632,"negative_rc","conflict",0.0687235844681176,2.80071707828239,0.633
9,1,639,"negative_highly_familiar","conflict",0.1168300935958,2.8055008581584,0.632
9,1,982,"positive","no_conflict",0.164936602723482,2.99211148778695,0.639
9,1,814,"positive","no_conflict",0.213043111851164,2.9106244048892,0.982
9,1,885,"negative_familiar","conflict",0.261149620978847,2.94694327069783,0.814
9,1,1228,"negative_unfamiliar","no_conflict",0.309256130106529,3.08919836680515,0.885
9,1,859,"positive","no_conflict",0.357362639234211,2.93399316383124,1.228
9,1,730,"positive","no_conflict",0.405469148361894,2.86332286012046,0.859
9,1,593,"negative_rc","conflict",0.453575657489576,2.77305469336426,0.73
9,1,1056,"positive","no_conflict",0.501682166617258,3.02366391819779,0.593
9,1,673,"negative_familiar","conflict",0.54978867574494,2.82801506422398,1.056
9,1,569,"negative_unfamiliar","no_conflict",0.597895184872623,2.75511226639507,0.673
9,1,504,"positive","no_conflict",0.646001694000305,2.70243053644553,0.569
9,1,NA,"positive","no_conflict",0.694108203127987,NA,0.504
9,1,695,"negative_highly_familiar","conflict",0.74221471225567,2.84198480459011,2.119
9,1,918,"negative_familiar","conflict",0.790321221383352,2.96284268120124,0.695
9,1,509,"positive","no_conflict",0.838427730511034,2.70671778233676,0.918
9,0,636,"positive","no_conflict",0.886534239638716,2.80345711564841,0.509
9,1,827,"negative_rc","conflict",0.934640748766399,2.91750550955255,0.636
9,1,562,"positive","no_conflict",0.982747257894081,2.74973631556906,0.827
9,1,753,"negative_rc","conflict",1.03085376702176,2.8767949762007,0.562
9,1,865,"positive","no_conflict",1.07896027614945,2.93701610746481,0.753
9,1,592,"negative_highly_familiar","conflict",1.12706678527713,2.77232170672292,0.865
9,0,1455,"positive","no_conflict",1.17517329440481,3.16286299332193,0.592
9,1,702,"negative_highly_familiar","conflict",1.22327980353249,2.84633711212981,1.455
9,1,1213,"negative_familiar","conflict",1.27138631266017,3.08386080086657,0.702
9,1,780,"positive","no_conflict",1.31949282178786,2.89209460269048,1.213
9,1,587,"negative_unfamiliar","no_conflict",1.36759933091554,2.76863810124761,0.78
9,1,667,"positive","no_conflict",1.41570584004322,2.82412583391655,0.587
9,1,650,"negative_rc","conflict",1.4638123491709,2.81291335664286,0.667
9,1,609,"positive","no_conflict",1.51191885829859,2.78461729263288,0.65
9,1,1000,"positive","no_conflict",1.56002536742627,3,0.609
9,1,703,"negative_familiar","conflict",1.60813187655395,2.84695532501982,1
9,1,966,"negative_unfamiliar","no_conflict",1.65623838568163,2.98497712641549,0.703
9,1,765,"positive","no_conflict",1.70434489480932,2.88366143515362,0.966
10,1,616,"negative_unfamiliar","no_conflict",-1.71121725325613,2.78958071216443,0.765
10,1,607,"positive","no_conflict",-1.66311074412844,2.78318869107526,0.616
10,1,470,"negative_rc","conflict",-1.61500423500076,2.67209785793572,0.607
10,1,629,"positive","no_conflict",-1.56689772587308,2.79865064544527,0.47
10,1,628,"negative_highly_familiar","conflict",-1.5187912167454,2.7979596437372,0.629
10,1,667,"positive","no_conflict",-1.47068470761772,2.82412583391655,0.628
10,1,514,"negative_familiar","conflict",-1.42257819849003,2.71096311899528,0.667
10,0,538,"positive","no_conflict",-1.37447168936235,2.73078227566639,0.514
10,1,697,"positive","no_conflict",-1.32636518023467,2.84323277809801,0.538
10,1,704,"negative_rc","conflict",-1.27825867110699,2.84757265914211,0.697
10,1,847,"negative_familiar","conflict",-1.2301521619793,2.92788341033071,0.704
10,1,862,"positive","no_conflict",-1.18204565285162,2.93550726582471,0.847
10,1,637,"positive","no_conflict",-1.13393914372394,2.80413943233535,0.862
10,1,644,"negative_rc","conflict",-1.08583263459626,2.80888586735981,0.637
10,1,731,"negative_highly_familiar","conflict",-1.03772612546857,2.86391737695786,0.644
10,1,771,"positive","no_conflict",-0.989619616340893,2.88705437805096,0.731
10,1,514,"positive","no_conflict",-0.94151310721321,2.71096311899528,0.771
10,1,601,"negative_unfamiliar","no_conflict",-0.893406598085528,2.77887447200274,0.514
10,1,648,"positive","no_conflict",-0.845300088957846,2.81157500587059,0.601
10,1,1159,"negative_highly_familiar","conflict",-0.797193579830163,3.0640834359636,0.648
10,1,823,"positive","no_conflict",-0.749087070702481,2.91539983521227,1.159
10,1,614,"negative_familiar","conflict",-0.700980561574799,2.78816837114117,0.823
10,1,662,"negative_unfamiliar","no_conflict",-0.652874052447117,2.8208579894397,0.614
10,1,621,"positive","no_conflict",-0.604767543319434,2.79309160017658,0.662
10,1,892,"negative_highly_familiar","conflict",-0.556661034191752,2.95036485437612,0.621
10,1,723,"positive","no_conflict",-0.50855452506407,2.85913829729453,0.892
10,1,570,"negative_familiar","conflict",-0.460448015936387,2.75587485567249,0.723
10,0,857,"positive","no_conflict",-0.412341506808705,2.9329808219232,0.57
10,1,824,"positive","no_conflict",-0.364234997681023,2.91592721169712,0.857
10,1,631,"negative_rc","conflict",-0.316128488553341,2.80002935924413,0.824
10,1,951,"positive","no_conflict",-0.268021979425658,2.97818051693741,0.631
10,1,1190,"negative_highly_familiar","conflict",-0.219915470297976,3.07554696139253,0.951
10,1,853,"positive","no_conflict",-0.171808961170294,2.93094903116752,1.19
10,1,660,"negative_unfamiliar","no_conflict",-0.123702452042611,2.81954393554187,0.853
10,1,611,"positive","no_conflict",-0.0755959429149292,2.78604121024255,0.66
10,1,626,"negative_unfamiliar","no_conflict",-0.0274894337872469,2.79657433321043,0.611
10,1,785,"positive","no_conflict",0.0206170753404354,2.89486965674525,0.626
10,1,633,"negative_rc","conflict",0.0687235844681176,2.80140371001736,0.785
10,1,1576,"negative_highly_familiar","conflict",0.1168300935958,3.19755621315354,0.633
10,1,719,"positive","no_conflict",0.164936602723482,2.85672889038288,1.576
10,1,646,"positive","no_conflict",0.213043111851164,2.81023251799508,0.719
10,1,693,"negative_familiar","conflict",0.261149620978847,2.84073323461181,0.646
10,1,684,"negative_unfamiliar","no_conflict",0.309256130106529,2.83505610172012,0.693
10,1,963,"positive","no_conflict",0.357362639234211,2.98362628712453,0.684
10,1,586,"positive","no_conflict",0.405469148361894,2.76789761601809,0.963
10,1,810,"negative_rc","conflict",0.453575657489576,2.90848501887865,0.586
10,1,745,"positive","no_conflict",0.501682166617258,2.87215627274829,0.81
10,1,568,"negative_familiar","conflict",0.54978867574494,2.75434833571102,0.745
10,1,676,"negative_unfamiliar","no_conflict",0.597895184872623,2.82994669594164,0.568
10,1,587,"positive","no_conflict",0.646001694000305,2.76863810124761,0.676
10,1,659,"positive","no_conflict",0.694108203127987,2.81888541459401,0.587
10,1,722,"negative_highly_familiar","conflict",0.74221471225567,2.85853719756964,0.659
10,1,626,"negative_familiar","conflict",0.790321221383352,2.79657433321043,0.722
10,1,1120,"positive","no_conflict",0.838427730511034,3.04921802267018,0.626
10,0,608,"positive","no_conflict",0.886534239638716,2.78390357927274,1.12
10,1,1110,"negative_rc","conflict",0.934640748766399,3.04532297878666,0.608
10,1,654,"positive","no_conflict",0.982747257894081,2.81557774832427,1.11
10,1,844,"negative_rc","conflict",1.03085376702176,2.92634244662566,0.654
10,1,701,"positive","no_conflict",1.07896027614945,2.84571801796666,0.844
10,1,700,"negative_highly_familiar","conflict",1.12706678527713,2.84509804001426,0.701
10,1,611,"positive","no_conflict",1.17517329440481,2.78604121024255,0.7
10,1,730,"negative_highly_familiar","conflict",1.22327980353249,2.86332286012046,0.611
10,1,1257,"negative_familiar","conflict",1.27138631266017,3.09933527768596,0.73
10,1,792,"positive","no_conflict",1.31949282178786,2.89872518158949,1.257
10,1,687,"negative_unfamiliar","no_conflict",1.36759933091554,2.83695673705955,0.792
10,1,863,"positive","no_conflict",1.41570584004322,2.93601079571521,0.687
10,1,NA,"negative_rc","conflict",1.4638123491709,NA,0.863
10,1,597,"positive","no_conflict",1.51191885829859,2.77597433112937,1.774
10,1,604,"positive","no_conflict",1.56002536742627,2.78103693862113,0.597
10,1,603,"negative_familiar","conflict",1.60813187655395,2.78031731214015,0.604
10,1,810,"negative_unfamiliar","no_conflict",1.65623838568163,2.90848501887865,0.603
10,1,833,"positive","no_conflict",1.70434489480932,2.92064500140679,0.81
11,1,772,"negative_unfamiliar","no_conflict",-1.71121725325613,2.88761730033574,0.833
11,1,1107,"positive","no_conflict",-1.66311074412844,3.04414762087872,0.772
11,1,835,"negative_rc","conflict",-1.61500423500076,2.9216864754836,1.107
11,1,466,"positive","no_conflict",-1.56689772587308,2.66838591669,0.835
11,1,937,"negative_highly_familiar","conflict",-1.5187912167454,2.97173959088778,0.466
11,0,880,"positive","no_conflict",-1.47068470761772,2.94448267215017,0.937
11,1,743,"negative_familiar","conflict",-1.42257819849003,2.87098881376058,0.88
11,1,766,"positive","no_conflict",-1.37447168936235,2.8842287696326,0.743
11,1,701,"positive","no_conflict",-1.32636518023467,2.84571801796666,0.766
11,1,1389,"negative_rc","conflict",-1.27825867110699,3.14270224573762,0.701
11,1,916,"negative_familiar","conflict",-1.2301521619793,2.96189547366785,1.389
11,1,963,"positive","no_conflict",-1.18204565285162,2.98362628712453,0.916
11,1,1330,"positive","no_conflict",-1.13393914372394,3.12385164096709,0.963
11,1,937,"negative_rc","conflict",-1.08583263459626,2.97173959088778,1.33
11,1,848,"negative_highly_familiar","conflict",-1.03772612546857,2.92839585225671,0.937
11,1,415,"positive","no_conflict",-0.989619616340893,2.61804809671209,0.848
11,1,670,"positive","no_conflict",-0.94151310721321,2.82607480270083,0.415
11,1,838,"negative_unfamiliar","no_conflict",-0.893406598085528,2.92324401863028,0.67
11,1,669,"positive","no_conflict",-0.845300088957846,2.82542611776782,0.838
11,1,836,"negative_highly_familiar","conflict",-0.797193579830163,2.92220627743902,0.669
11,1,483,"positive","no_conflict",-0.749087070702481,2.68394713075151,0.836
11,1,610,"negative_familiar","conflict",-0.700980561574799,2.78532983501077,0.483
11,1,953,"negative_unfamiliar","no_conflict",-0.652874052447117,2.97909290063833,0.61
11,1,792,"positive","no_conflict",-0.604767543319434,2.89872518158949,0.953
11,1,1256,"negative_highly_familiar","conflict",-0.556661034191752,3.09898963940118,0.792
11,1,615,"positive","no_conflict",-0.50855452506407,2.78887511577542,1.256
11,1,934,"negative_familiar","conflict",-0.460448015936387,2.97034687623009,0.615
11,1,893,"positive","no_conflict",-0.412341506808705,2.95085145888855,0.934
11,1,996,"positive","no_conflict",-0.364234997681023,2.9982593384237,0.893
11,1,859,"negative_rc","conflict",-0.316128488553341,2.93399316383124,0.996
11,1,722,"positive","no_conflict",-0.268021979425658,2.85853719756964,0.859
11,1,873,"negative_highly_familiar","conflict",-0.219915470297976,2.94101424370557,0.722
11,1,601,"positive","no_conflict",-0.171808961170294,2.77887447200274,0.873
11,1,696,"negative_unfamiliar","no_conflict",-0.123702452042611,2.84260923961056,0.601
11,1,975,"positive","no_conflict",-0.0755959429149292,2.98900461569854,0.696
11,1,678,"negative_unfamiliar","no_conflict",-0.0274894337872469,2.83122969386706,0.975
11,1,757,"positive","no_conflict",0.0206170753404354,2.87909587950007,0.678
11,1,740,"negative_rc","conflict",0.0687235844681176,2.86923171973098,0.757
11,1,779,"negative_highly_familiar","conflict",0.1168300935958,2.89153745767256,0.74
11,1,867,"positive","no_conflict",0.164936602723482,2.93801909747621,0.779
11,0,970,"positive","no_conflict",0.213043111851164,2.98677173426624,0.867
11,1,1169,"negative_familiar","conflict",0.261149620978847,3.06781451116184,0.97
11,1,824,"negative_unfamiliar","no_conflict",0.309256130106529,2.91592721169712,1.169
11,1,1511,"positive","no_conflict",0.357362639234211,3.17926446433903,0.824
11,1,1262,"positive","no_conflict",0.405469148361894,3.10105935490812,1.511
11,1,1181,"negative_rc","conflict",0.453575657489576,3.07224989761351,1.262
11,1,997,"positive","no_conflict",0.501682166617258,2.99869515831166,1.181
11,1,853,"negative_familiar","conflict",0.54978867574494,2.93094903116752,0.997
11,1,823,"negative_unfamiliar","no_conflict",0.597895184872623,2.91539983521227,0.853
11,1,1014,"positive","no_conflict",0.646001694000305,3.00603795499732,0.823
11,1,750,"positive","no_conflict",0.694108203127987,2.8750612633917,1.014
11,1,1021,"negative_highly_familiar","conflict",0.74221471225567,3.00902574208691,0.75
11,1,908,"negative_familiar","conflict",0.790321221383352,2.95808584852109,1.021
11,1,1363,"positive","no_conflict",0.838427730511034,3.13449585583467,0.908
11,0,730,"positive","no_conflict",0.886534239638716,2.86332286012046,1.363
11,1,785,"negative_rc","conflict",0.934640748766399,2.89486965674525,0.73
11,1,888,"positive","no_conflict",0.982747257894081,2.9484129657786,0.785
11,1,824,"negative_rc","conflict",1.03085376702176,2.91592721169712,0.888
11,1,1039,"positive","no_conflict",1.07896027614945,3.01661554755718,0.824
11,1,758,"negative_highly_familiar","conflict",1.12706678527713,2.87966920563205,1.039
11,1,629,"positive","no_conflict",1.17517329440481,2.79865064544527,0.758
11,1,1404,"negative_highly_familiar","conflict",1.22327980353249,3.14736710779379,0.629
11,1,939,"negative_familiar","conflict",1.27138631266017,2.97266559226611,1.404
11,1,954,"positive","no_conflict",1.31949282178786,2.9795483747041,0.939
11,1,754,"negative_unfamiliar","no_conflict",1.36759933091554,2.87737134586977,0.954
11,1,481,"positive","no_conflict",1.41570584004322,2.68214507637383,0.754
11,1,688,"negative_rc","conflict",1.4638123491709,2.83758843823551,0.481
11,1,711,"positive","no_conflict",1.51191885829859,2.85186960072977,0.688
11,1,582,"positive","no_conflict",1.56002536742627,2.76492298464989,0.711
11,1,1117,"negative_familiar","conflict",1.60813187655395,3.04805317311561,0.582
11,1,924,"negative_unfamiliar","no_conflict",1.65623838568163,2.96567197122011,1.117
11,0,859,"positive","no_conflict",1.70434489480932,2.93399316383124,0.924
12,1,889,"negative_unfamiliar","no_conflict",-1.71121725325613,2.94890176097021,0.859
12,1,1496,"positive","no_conflict",-1.66311074412844,3.17493159352844,0.889
12,1,1239,"negative_rc","conflict",-1.61500423500076,3.09307130637606,1.496
12,1,966,"positive","no_conflict",-1.56689772587308,2.98497712641549,1.239
12,1,NA,"negative_highly_familiar","conflict",-1.5187912167454,NA,0.966
12,1,1061,"positive","no_conflict",-1.47068470761772,3.02571538390134,1.765
12,1,956,"negative_familiar","conflict",-1.42257819849003,2.9804578922761,1.061
12,1,963,"positive","no_conflict",-1.37447168936235,2.98362628712453,0.956
12,0,786,"positive","no_conflict",-1.32636518023467,2.89542254603941,0.963
12,1,1121,"negative_rc","conflict",-1.27825867110699,3.04960561259497,0.786
12,1,1000,"negative_familiar","conflict",-1.2301521619793,3,1.121
12,1,703,"positive","no_conflict",-1.18204565285162,2.84695532501982,1
12,1,998,"positive","no_conflict",-1.13393914372394,2.99913054128737,0.703
12,1,862,"negative_rc","conflict",-1.08583263459626,2.93550726582471,0.998
12,1,1189,"negative_highly_familiar","conflict",-1.03772612546857,3.07518185461869,0.862
12,1,988,"positive","no_conflict",-0.989619616340893,2.99475694458763,1.189
12,1,979,"positive","no_conflict",-0.94151310721321,2.99078269180314,0.988
12,1,970,"negative_unfamiliar","no_conflict",-0.893406598085528,2.98677173426624,0.979
12,1,913,"positive","no_conflict",-0.845300088957846,2.9604707775343,0.97
12,0,992,"negative_highly_familiar","conflict",-0.797193579830163,2.99651167215418,0.913
12,1,1136,"positive","no_conflict",-0.749087070702481,3.055378331375,0.992
12,0,1623,"negative_familiar","conflict",-0.700980561574799,3.21031851982623,1.136
12,1,782,"negative_unfamiliar","no_conflict",-0.652874052447117,2.89320675305985,1.623
12,1,949,"positive","no_conflict",-0.604767543319434,2.97726621242729,0.782
12,1,1244,"negative_highly_familiar","conflict",-0.556661034191752,3.0948203803548,0.949
12,1,963,"positive","no_conflict",-0.50855452506407,2.98362628712453,1.244
12,1,1010,"negative_familiar","conflict",-0.460448015936387,3.00432137378264,0.963
12,1,1193,"positive","no_conflict",-0.412341506808705,3.07664044367034,1.01
12,1,1633,"positive","no_conflict",-0.364234997681023,3.21298618473667,1.193
12,0,728,"negative_rc","conflict",-0.316128488553341,2.86213137931304,1.633
12,1,815,"positive","no_conflict",-0.268021979425658,2.91115760873998,0.728
12,0,1078,"negative_highly_familiar","conflict",-0.219915470297976,3.03261876085072,0.815
12,1,1109,"positive","no_conflict",-0.171808961170294,3.04493154614916,1.078
12,1,533,"negative_unfamiliar","no_conflict",-0.123702452042611,2.72672720902657,1.109
12,1,868,"positive","no_conflict",-0.0755959429149292,2.93851972517649,0.533
12,1,1235,"negative_unfamiliar","no_conflict",-0.0274894337872469,3.09166695759568,0.868
12,1,1522,"positive","no_conflict",0.0206170753404354,3.18241465243455,1.235
12,0,1433,"negative_rc","conflict",0.0687235844681176,3.15624619039734,1.522
12,0,897,"negative_highly_familiar","conflict",0.1168300935958,2.95279244304409,1.433
12,1,1232,"positive","no_conflict",0.164936602723482,3.09061070782841,0.897
12,1,1311,"positive","no_conflict",0.213043111851164,3.11760269169008,1.232
12,1,1542,"negative_familiar","conflict",0.261149620978847,3.18808437371494,1.311
12,0,733,"negative_unfamiliar","no_conflict",0.309256130106529,2.86510397464113,1.542
12,1,1245,"positive","no_conflict",0.357362639234211,3.09516935143176,0.733
12,1,1132,"positive","no_conflict",0.405469148361894,3.05384642685225,1.245
12,0,1435,"negative_rc","conflict",0.453575657489576,3.15685190107001,1.132
12,1,1034,"positive","no_conflict",0.501682166617258,3.01452053875792,1.435
12,NA,NA,"negative_familiar","conflict",0.54978867574494,NA,1.034
12,1,1541,"negative_unfamiliar","no_conflict",0.597895184872623,3.18780263871842,NA
12,1,1308,"positive","no_conflict",0.646001694000305,3.11660774398825,1.541
12,1,1139,"positive","no_conflict",0.694108203127987,3.0565237240791,1.308
12,1,915,"negative_highly_familiar","conflict",0.74221471225567,2.96142109406645,1.139
12,1,1202,"negative_familiar","conflict",0.790321221383352,3.07990446766672,0.915
12,1,1201,"positive","no_conflict",0.838427730511034,3.07954300740291,1.202
12,0,1104,"positive","no_conflict",0.886534239638716,3.04296907339318,1.201
12,1,1367,"negative_rc","conflict",0.934640748766399,3.13576851456782,1.104
12,0,1654,"positive","no_conflict",0.982747257894081,3.21853550521653,1.367
12,1,1509,"negative_rc","conflict",1.03085376702176,3.17868923977559,1.654
12,1,1244,"positive","no_conflict",1.07896027614945,3.0948203803548,1.509
12,1,996,"negative_highly_familiar","conflict",1.12706678527713,2.9982593384237,1.244
12,1,1115,"positive","no_conflict",1.17517329440481,3.04727486738418,0.996
12,1,NA,"negative_highly_familiar","conflict",1.22327980353249,NA,1.115
12,1,1089,"negative_familiar","conflict",1.27138631266017,3.03702787975578,2.042
12,0,1240,"positive","no_conflict",1.31949282178786,3.09342168516224,1.089
12,1,1303,"negative_unfamiliar","no_conflict",1.36759933091554,3.11494441571258,1.24
12,1,1414,"positive","no_conflict",1.41570584004322,3.15044940946088,1.303
12,NA,NA,"negative_rc","conflict",1.4638123491709,NA,1.414
12,1,1142,"positive","no_conflict",1.51191885829859,3.05766610390983,NA
12,1,1164,"positive","no_conflict",1.56002536742627,3.06595298031387,1.142
12,1,1084,"negative_familiar","conflict",1.60813187655395,3.03502928220237,1.164
12,1,955,"negative_unfamiliar","no_conflict",1.65623838568163,2.98000337158375,1.084
12,1,1050,"positive","no_conflict",1.70434489480932,3.02118929906994,0.955
13,1,566,"negative_unfamiliar","no_conflict",-1.71121725325613,2.75281643118827,1.05
13,1,1021,"positive","no_conflict",-1.66311074412844,3.00902574208691,0.566
13,1,861,"negative_rc","conflict",-1.61500423500076,2.93500315145365,1.021
13,0,1340,"positive","no_conflict",-1.56689772587308,3.12710479836481,0.861
13,0,755,"negative_highly_familiar","conflict",-1.5187912167454,2.87794695162919,1.34
13,1,594,"positive","no_conflict",-1.47068470761772,2.77378644498119,0.755
13,1,522,"negative_familiar","conflict",-1.42257819849003,2.71767050300226,0.594
13,1,1016,"positive","no_conflict",-1.37447168936235,3.0068937079479,0.522
13,1,800,"positive","no_conflict",-1.32636518023467,2.90308998699194,1.016
13,1,591,"negative_rc","conflict",-1.27825867110699,2.77158748088126,0.8
13,1,615,"negative_familiar","conflict",-1.2301521619793,2.78887511577542,0.591
13,1,614,"positive","no_conflict",-1.18204565285162,2.78816837114117,0.615
13,1,477,"positive","no_conflict",-1.13393914372394,2.67851837904011,0.614
13,1,852,"negative_rc","conflict",-1.08583263459626,2.9304395947667,0.477
13,1,771,"negative_highly_familiar","conflict",-1.03772612546857,2.88705437805096,0.852
13,1,834,"positive","no_conflict",-0.989619616340893,2.92116605063774,0.771
13,1,561,"positive","no_conflict",-0.94151310721321,2.74896286125616,0.834
13,1,689,"negative_unfamiliar","no_conflict",-0.893406598085528,2.83821922190763,0.561
13,1,1112,"positive","no_conflict",-0.845300088957846,3.04610478724604,0.689
13,1,695,"negative_highly_familiar","conflict",-0.797193579830163,2.84198480459011,1.112
13,1,726,"positive","no_conflict",-0.749087070702481,2.86093662070009,0.695
13,1,565,"negative_familiar","conflict",-0.700980561574799,2.75204844781944,0.726
13,1,636,"negative_unfamiliar","no_conflict",-0.652874052447117,2.80345711564841,0.565
13,0,995,"positive","no_conflict",-0.604767543319434,2.99782308074573,0.636
13,1,922,"negative_highly_familiar","conflict",-0.556661034191752,2.96473092105363,0.995
13,1,1106,"positive","no_conflict",-0.50855452506407,3.04375512696868,0.922
13,1,665,"negative_familiar","conflict",-0.460448015936387,2.8228216453031,1.106
13,1,1040,"positive","no_conflict",-0.412341506808705,3.01703333929878,0.665
13,1,679,"positive","no_conflict",-0.364234997681023,2.8318697742805,1.04
13,1,838,"negative_rc","conflict",-0.316128488553341,2.92324401863028,0.679
13,1,781,"positive","no_conflict",-0.268021979425658,2.8926510338773,0.838
13,1,980,"negative_highly_familiar","conflict",-0.219915470297976,2.99122607569249,0.781
13,1,764,"positive","no_conflict",-0.171808961170294,2.88309335857569,0.98
13,1,1459,"negative_unfamiliar","no_conflict",-0.123702452042611,3.16405529189345,0.764
13,1,738,"positive","no_conflict",-0.0755959429149292,2.86805636182304,1.459
13,1,673,"negative_unfamiliar","no_conflict",-0.0274894337872469,2.82801506422398,0.738
13,1,1136,"positive","no_conflict",0.0206170753404354,3.055378331375,0.673
13,1,863,"negative_rc","conflict",0.0687235844681176,2.93601079571521,1.136
13,1,678,"negative_highly_familiar","conflict",0.1168300935958,2.83122969386706,0.863
13,0,725,"positive","no_conflict",0.164936602723482,2.86033800657099,0.678
13,1,469,"positive","no_conflict",0.213043111851164,2.67117284271508,0.725
13,1,732,"negative_familiar","conflict",0.261149620978847,2.86451108105839,0.469
13,1,651,"negative_unfamiliar","no_conflict",0.309256130106529,2.81358098856819,0.732
13,1,618,"positive","no_conflict",0.357362639234211,2.79098847508882,0.651
13,1,993,"positive","no_conflict",0.405469148361894,2.99694924849538,0.618
13,1,1120,"negative_rc","conflict",0.453575657489576,3.04921802267018,0.993
13,1,735,"positive","no_conflict",0.501682166617258,2.86628733908419,1.12
13,1,998,"negative_familiar","conflict",0.54978867574494,2.99913054128737,0.735
13,1,1037,"negative_unfamiliar","no_conflict",0.597895184872623,3.01577875638904,0.998
13,1,NA,"positive","no_conflict",0.646001694000305,NA,1.037
13,1,525,"positive","no_conflict",0.694108203127987,2.72015930340596,2.364
13,1,636,"negative_highly_familiar","conflict",0.74221471225567,2.80345711564841,0.525
13,1,675,"negative_familiar","conflict",0.790321221383352,2.82930377283102,0.636
13,1,770,"positive","no_conflict",0.838427730511034,2.88649072517248,0.675
13,0,561,"positive","no_conflict",0.886534239638716,2.74896286125616,0.77
13,1,664,"negative_rc","conflict",0.934640748766399,2.82216807936802,0.561
13,1,831,"positive","no_conflict",0.982747257894081,2.91960102378411,0.664
13,1,1334,"negative_rc","conflict",1.03085376702176,3.12515582958053,0.831
13,1,870,"positive","no_conflict",1.07896027614945,2.93951925261862,1.334
13,1,693,"negative_highly_familiar","conflict",1.12706678527713,2.84073323461181,0.87
13,1,932,"positive","no_conflict",1.17517329440481,2.96941591235398,0.693
13,1,699,"negative_highly_familiar","conflict",1.22327980353249,2.84447717574568,0.932
13,1,1410,"negative_familiar","conflict",1.27138631266017,3.14921911265538,0.699
13,1,977,"positive","no_conflict",1.31949282178786,2.98989456371877,1.41
13,1,936,"negative_unfamiliar","no_conflict",1.36759933091554,2.97127584873811,0.977
13,1,752,"positive","no_conflict",1.41570584004322,2.87621784059164,0.936
13,1,839,"negative_rc","conflict",1.4638123491709,2.9237619608287,0.752
13,1,798,"positive","no_conflict",1.51191885829859,2.90200289135073,0.839
13,1,717,"positive","no_conflict",1.56002536742627,2.8555191556678,0.798
13,1,1364,"negative_familiar","conflict",1.60813187655395,3.13481437032046,0.717
13,1,987,"negative_unfamiliar","no_conflict",1.65623838568163,2.99431715266964,1.364
13,1,1154,"positive","no_conflict",1.70434489480932,3.06220580881971,0.987
14,0,464,"negative_unfamiliar","no_conflict",-1.71121725325613,2.66651798055488,1.154
14,1,943,"positive","no_conflict",-1.66311074412844,2.97451169273733,0.464
14,0,471,"negative_rc","conflict",-1.61500423500076,2.6730209071289,0.943
14,0,454,"positive","no_conflict",-1.56689772587308,2.6570558528571,0.471
14,0,501,"negative_highly_familiar","conflict",-1.5187912167454,2.69983772586725,0.454
14,0,612,"positive","no_conflict",-1.47068470761772,2.78675142214556,0.501
14,0,1211,"negative_familiar","conflict",-1.42257819849003,3.08314414314305,0.612
14,1,402,"positive","no_conflict",-1.37447168936235,2.60422605308447,1.211
14,1,1193,"positive","no_conflict",-1.32636518023467,3.07664044367034,0.402
14,0,905,"negative_rc","conflict",-1.27825867110699,2.9566485792052,1.193
14,1,896,"negative_familiar","conflict",-1.2301521619793,2.95230800966213,0.905
14,1,791,"positive","no_conflict",-1.18204565285162,2.89817648349768,0.896
14,0,1710,"positive","no_conflict",-1.13393914372394,3.23299611039215,0.791
14,0,709,"negative_rc","conflict",-1.08583263459626,2.85064623518307,1.71
14,0,516,"negative_highly_familiar","conflict",-1.03772612546857,2.71264970162721,0.709
14,0,771,"positive","no_conflict",-0.989619616340893,2.88705437805096,0.516
14,0,850,"positive","no_conflict",-0.94151310721321,2.92941892571429,0.771
14,0,1522,"negative_unfamiliar","no_conflict",-0.893406598085528,3.18241465243455,0.85
14,1,1297,"positive","no_conflict",-0.845300088957846,3.11293997608408,1.522
14,0,1168,"negative_highly_familiar","conflict",-0.797193579830163,3.06744284277638,1.297
14,1,1679,"positive","no_conflict",-0.749087070702481,3.22505069613805,1.168
14,1,1710,"negative_familiar","conflict",-0.700980561574799,3.23299611039215,1.679
14,1,NA,"negative_unfamiliar","no_conflict",-0.652874052447117,NA,1.71
14,1,1260,"positive","no_conflict",-0.604767543319434,3.10037054511756,1.957
14,1,1069,"negative_highly_familiar","conflict",-0.556661034191752,3.02897770520878,1.26
14,1,1403,"positive","no_conflict",-0.50855452506407,3.14705767102836,1.069
14,1,1379,"negative_familiar","conflict",-0.460448015936387,3.13956426617585,1.403
14,1,466,"positive","no_conflict",-0.412341506808705,2.66838591669,1.379
14,1,1545,"positive","no_conflict",-0.364234997681023,3.18892848376085,0.466
14,1,1240,"negative_rc","conflict",-0.316128488553341,3.09342168516224,1.545
14,1,815,"positive","no_conflict",-0.268021979425658,2.91115760873998,1.24
14,1,926,"negative_highly_familiar","conflict",-0.219915470297976,2.96661098668193,0.815
14,0,NA,"positive","no_conflict",-0.171808961170294,NA,0.926
14,1,1005,"negative_unfamiliar","no_conflict",-0.123702452042611,3.00216606175651,1.878
14,1,804,"positive","no_conflict",-0.0755959429149292,2.90525604874845,1.005
14,1,1419,"negative_unfamiliar","no_conflict",-0.0274894337872469,3.15198239545747,0.804
14,1,1234,"positive","no_conflict",0.0206170753404354,3.09131515969722,1.419
14,1,969,"negative_rc","conflict",0.0687235844681176,2.98632377705077,1.234
14,1,864,"negative_highly_familiar","conflict",0.1168300935958,2.93651374247889,0.969
14,1,1351,"positive","no_conflict",0.164936602723482,3.13065534902203,0.864
14,0,1591,"positive","no_conflict",0.213043111851164,3.20167017964658,1.351
14,0,1166,"negative_familiar","conflict",0.261149620978847,3.066698550423,1.591
14,1,1149,"negative_unfamiliar","no_conflict",0.309256130106529,3.06032002868829,1.166
14,0,1004,"positive","no_conflict",0.357362639234211,3.001733712809,1.149
14,1,1579,"positive","no_conflict",0.405469148361894,3.19838213000829,1.004
14,1,978,"negative_rc","conflict",0.453575657489576,2.9903388547876,1.579
14,1,521,"positive","no_conflict",0.501682166617258,2.71683772329952,0.978
14,1,593,"negative_familiar","conflict",0.54978867574494,2.77305469336426,0.521
14,1,668,"negative_unfamiliar","no_conflict",0.597895184872623,2.82477646247555,0.593
14,1,1427,"positive","no_conflict",0.646001694000305,3.15442397311465,0.668
14,1,986,"positive","no_conflict",0.694108203127987,2.99387691494121,1.427
14,1,505,"negative_highly_familiar","conflict",0.74221471225567,2.70329137811866,0.986
14,1,1280,"negative_familiar","conflict",0.790321221383352,3.10720996964787,0.505
14,1,1384,"positive","no_conflict",0.838427730511034,3.14113609012074,1.28
14,0,1063,"positive","no_conflict",0.886534239638716,3.0265332645233,1.384
14,1,1062,"negative_rc","conflict",0.934640748766399,3.02612451674545,1.063
14,1,1237,"positive","no_conflict",0.982747257894081,3.09236969962912,1.062
14,1,1564,"negative_rc","conflict",1.03085376702176,3.19423674872383,1.237
14,1,1003,"positive","no_conflict",1.07896027614945,3.00130093302042,1.564
14,1,1146,"negative_highly_familiar","conflict",1.12706678527713,3.05918461763137,1.003
14,1,1226,"positive","no_conflict",1.17517329440481,3.0884904701824,1.146
14,1,1361,"negative_highly_familiar","conflict",1.22327980353249,3.13385812520333,1.226
14,1,NA,"negative_familiar","conflict",1.27138631266017,NA,1.361
14,1,463,"positive","no_conflict",1.31949282178786,2.66558099101795,2.224
14,1,822,"negative_unfamiliar","no_conflict",1.36759933091554,2.91487181754005,0.463
14,1,1485,"positive","no_conflict",1.41570584004322,3.17172645365323,0.822
14,1,900,"negative_rc","conflict",1.4638123491709,2.95424250943932,1.485
14,0,1139,"positive","no_conflict",1.51191885829859,3.0565237240791,0.9
14,1,875,"positive","no_conflict",1.56002536742627,2.94200805302231,1.139
14,1,1250,"negative_familiar","conflict",1.60813187655395,3.09691001300806,0.875
14,1,1633,"negative_unfamiliar","no_conflict",1.65623838568163,3.21298618473667,1.25
14,1,552,"positive","no_conflict",1.70434489480932,2.7419390777292,1.633
15,1,632,"negative_unfamiliar","no_conflict",-1.71121725325613,2.80071707828239,0.552
15,1,648,"positive","no_conflict",-1.66311074412844,2.81157500587059,0.632
15,1,655,"negative_rc","conflict",-1.61500423500076,2.81624129999178,0.648
15,1,526,"positive","no_conflict",-1.56689772587308,2.72098574415374,0.655
15,1,645,"negative_highly_familiar","conflict",-1.5187912167454,2.80955971463527,0.526
15,1,572,"positive","no_conflict",-1.47068470761772,2.75739602879302,0.645
15,1,555,"negative_familiar","conflict",-1.42257819849003,2.74429298312268,0.572
15,1,922,"positive","no_conflict",-1.37447168936235,2.96473092105363,0.555
15,1,705,"positive","no_conflict",-1.32636518023467,2.8481891169914,0.922
15,1,1065,"negative_rc","conflict",-1.27825867110699,3.02734960777476,0.705
15,1,904,"negative_familiar","conflict",-1.2301521619793,2.95616843047536,1.065
15,1,551,"positive","no_conflict",-1.18204565285162,2.74115159885178,0.904
15,1,NA,"positive","no_conflict",-1.13393914372394,NA,0.551
15,1,725,"negative_rc","conflict",-1.08583263459626,2.86033800657099,2.198
15,1,1132,"negative_highly_familiar","conflict",-1.03772612546857,3.05384642685225,0.725
15,1,563,"positive","no_conflict",-0.989619616340893,2.75050839485135,1.132
15,1,547,"positive","no_conflict",-0.94151310721321,2.73798732633343,0.563
15,1,930,"negative_unfamiliar","no_conflict",-0.893406598085528,2.96848294855394,0.547
15,1,665,"positive","no_conflict",-0.845300088957846,2.8228216453031,0.93
15,1,1104,"negative_highly_familiar","conflict",-0.797193579830163,3.04296907339318,0.665
15,1,663,"positive","no_conflict",-0.749087070702481,2.82151352840477,1.104
15,1,806,"negative_familiar","conflict",-0.700980561574799,2.90633504180509,0.663
15,1,885,"negative_unfamiliar","no_conflict",-0.652874052447117,2.94694327069783,0.806
15,1,628,"positive","no_conflict",-0.604767543319434,2.7979596437372,0.885
15,1,1540,"negative_highly_familiar","conflict",-0.556661034191752,3.18752072083646,0.628
15,1,571,"positive","no_conflict",-0.50855452506407,2.75663610824585,1.54
15,1,914,"negative_familiar","conflict",-0.460448015936387,2.96094619573383,0.571
15,1,729,"positive","no_conflict",-0.412341506808705,2.86272752831797,0.914
15,0,1592,"positive","no_conflict",-0.364234997681023,3.20194306340165,0.729
15,1,871,"negative_rc","conflict",-0.316128488553341,2.94001815500766,1.592
15,1,518,"positive","no_conflict",-0.268021979425658,2.71432975974523,0.871
15,1,1661,"negative_highly_familiar","conflict",-0.219915470297976,3.22036963245139,0.518
15,1,997,"positive","no_conflict",-0.171808961170294,2.99869515831166,1.661
15,1,604,"negative_unfamiliar","no_conflict",-0.123702452042611,2.78103693862113,0.997
15,1,547,"positive","no_conflict",-0.0755959429149292,2.73798732633343,0.604
15,1,738,"negative_unfamiliar","no_conflict",-0.0274894337872469,2.86805636182304,0.547
15,1,721,"positive","no_conflict",0.0206170753404354,2.85793526471943,0.738
15,1,1176,"negative_rc","conflict",0.0687235844681176,3.07040732174012,0.721
15,0,NA,"negative_highly_familiar","conflict",0.1168300935958,NA,1.176
15,1,935,"positive","no_conflict",0.164936602723482,2.97081161087252,2.471
15,0,782,"positive","no_conflict",0.213043111851164,2.89320675305985,0.935
15,1,1389,"negative_familiar","conflict",0.261149620978847,3.14270224573762,0.782
15,1,684,"negative_unfamiliar","no_conflict",0.309256130106529,2.83505610172012,1.389
15,1,755,"positive","no_conflict",0.357362639234211,2.87794695162919,0.684
15,1,1250,"positive","no_conflict",0.405469148361894,3.09691001300806,0.755
15,1,1057,"negative_rc","conflict",0.453575657489576,3.02407498730743,1.25
15,1,472,"positive","no_conflict",0.501682166617258,2.67394199863409,1.057
15,1,976,"negative_familiar","conflict",0.54978867574494,2.98944981766669,0.472
15,1,638,"negative_unfamiliar","no_conflict",0.597895184872623,2.80482067872116,0.976
15,1,445,"positive","no_conflict",0.646001694000305,2.64836001098093,0.638
15,1,684,"positive","no_conflict",0.694108203127987,2.83505610172012,0.445
15,1,1123,"negative_highly_familiar","conflict",0.74221471225567,3.05037975626146,0.684
15,1,666,"negative_familiar","conflict",0.790321221383352,2.8234742291703,1.123
15,1,674,"positive","no_conflict",0.838427730511034,2.82865989653532,0.666
15,0,1065,"positive","no_conflict",0.886534239638716,3.02734960777476,0.674
15,1,632,"negative_rc","conflict",0.934640748766399,2.80071707828239,1.065
15,1,1255,"positive","no_conflict",0.982747257894081,3.09864372581706,0.632
15,1,654,"negative_rc","conflict",1.03085376702176,2.81557774832427,1.255
15,1,757,"positive","no_conflict",1.07896027614945,2.87909587950007,0.654
15,1,500,"negative_highly_familiar","conflict",1.12706678527713,2.69897000433602,0.757
15,1,507,"positive","no_conflict",1.17517329440481,2.70500795933334,0.5
15,1,635,"negative_highly_familiar","conflict",1.22327980353249,2.80277372529198,0.507
15,0,698,"negative_familiar","conflict",1.27138631266017,2.84385542262316,0.635
15,1,NA,"positive","no_conflict",1.31949282178786,NA,0.698
15,1,952,"negative_unfamiliar","no_conflict",1.36759933091554,2.97863694838447,2.161
15,1,576,"positive","no_conflict",1.41570584004322,2.76042248342321,0.952
15,1,583,"negative_rc","conflict",1.4638123491709,2.76566855475901,0.576
15,1,766,"positive","no_conflict",1.51191885829859,2.8842287696326,0.583
15,1,877,"positive","no_conflict",1.56002536742627,2.94299959336604,0.766
15,0,1444,"negative_familiar","conflict",1.60813187655395,3.15956719323362,0.877
15,1,900,"negative_unfamiliar","no_conflict",1.65623838568163,2.95424250943932,1.444
15,1,579,"positive","no_conflict",1.70434489480932,2.76267856372744,0.9
16,1,438,"negative_unfamiliar","no_conflict",-1.71121725325613,2.6414741105041,0.579
16,1,693,"positive","no_conflict",-1.66311074412844,2.84073323461181,0.438
16,1,660,"negative_rc","conflict",-1.61500423500076,2.81954393554187,0.693
16,1,595,"positive","no_conflict",-1.56689772587308,2.77451696572855,0.66
16,1,482,"negative_highly_familiar","conflict",-1.5187912167454,2.68304703823885,0.595
16,1,1121,"positive","no_conflict",-1.47068470761772,3.04960561259497,0.482
16,1,792,"negative_familiar","conflict",-1.42257819849003,2.89872518158949,1.121
16,1,600,"positive","no_conflict",-1.37447168936235,2.77815125038364,0.792
16,1,623,"positive","no_conflict",-1.32636518023467,2.79448804665917,0.6
16,1,486,"negative_rc","conflict",-1.27825867110699,2.68663626926229,0.623
16,1,469,"negative_familiar","conflict",-1.2301521619793,2.67117284271508,0.486
16,1,820,"positive","no_conflict",-1.18204565285162,2.91381385238372,0.469
16,0,619,"positive","no_conflict",-1.13393914372394,2.79169064902012,0.82
16,1,538,"negative_rc","conflict",-1.08583263459626,2.73078227566639,0.619
16,1,497,"negative_highly_familiar","conflict",-1.03772612546857,2.69635638873333,0.538
16,1,873,"positive","no_conflict",-0.989619616340893,2.94101424370557,0.497
16,1,880,"positive","no_conflict",-0.94151310721321,2.94448267215017,0.873
16,1,679,"negative_unfamiliar","no_conflict",-0.893406598085528,2.8318697742805,0.88
16,1,590,"positive","no_conflict",-0.845300088957846,2.77085201164214,0.679
16,1,1357,"negative_highly_familiar","conflict",-0.797193579830163,3.13257984765974,0.59
16,1,620,"positive","no_conflict",-0.749087070702481,2.79239168949825,1.357
16,1,1387,"negative_familiar","conflict",-0.700980561574799,3.14207646107328,0.62
16,1,747,"negative_unfamiliar","no_conflict",-0.652874052447117,2.8733206018154,1.387
16,1,850,"positive","no_conflict",-0.604767543319434,2.92941892571429,0.747
16,1,1041,"negative_highly_familiar","conflict",-0.556661034191752,3.01745072951054,0.85
16,0,512,"positive","no_conflict",-0.50855452506407,2.70926996097583,1.041
16,1,671,"negative_familiar","conflict",-0.460448015936387,2.82672252016899,0.512
16,1,614,"positive","no_conflict",-0.412341506808705,2.78816837114117,0.671
16,1,1069,"positive","no_conflict",-0.364234997681023,3.02897770520878,0.614
16,1,820,"negative_rc","conflict",-0.316128488553341,2.91381385238372,1.069
16,1,524,"positive","no_conflict",-0.268021979425658,2.71933128698373,0.82
16,1,675,"negative_highly_familiar","conflict",-0.219915470297976,2.82930377283102,0.524
16,1,1466,"positive","no_conflict",-0.171808961170294,3.16613397030511,0.675
16,1,681,"negative_unfamiliar","no_conflict",-0.123702452042611,2.83314711191279,1.466
16,1,864,"positive","no_conflict",-0.0755959429149292,2.93651374247889,0.681
16,1,727,"negative_unfamiliar","no_conflict",-0.0274894337872469,2.86153441085904,0.864
16,1,694,"positive","no_conflict",0.0206170753404354,2.84135947045485,0.727
16,0,702,"negative_rc","conflict",0.0687235844681176,2.84633711212981,0.694
16,1,1261,"negative_highly_familiar","conflict",0.1168300935958,3.10071508657308,0.702
16,0,700,"positive","no_conflict",0.164936602723482,2.84509804001426,1.261
16,1,675,"positive","no_conflict",0.213043111851164,2.82930377283102,0.7
16,1,1194,"negative_familiar","conflict",0.261149620978847,3.07700432679335,0.675
16,1,633,"negative_unfamiliar","no_conflict",0.309256130106529,2.80140371001736,1.194
16,1,664,"positive","no_conflict",0.357362639234211,2.82216807936802,0.633
16,1,656,"positive","no_conflict",0.405469148361894,2.81690383937566,0.664
16,1,1183,"negative_rc","conflict",0.453575657489576,3.07298474462793,0.656
16,1,1126,"positive","no_conflict",0.501682166617258,3.05153839051533,1.183
16,1,781,"negative_familiar","conflict",0.54978867574494,2.8926510338773,1.126
16,1,742,"negative_unfamiliar","no_conflict",0.597895184872623,2.87040390527903,0.781
16,0,773,"positive","no_conflict",0.646001694000305,2.88817949391832,0.742
16,1,485,"positive","no_conflict",0.694108203127987,2.68574173860226,0.773
16,1,884,"negative_highly_familiar","conflict",0.74221471225567,2.94645226501307,0.485
16,1,579,"negative_familiar","conflict",0.790321221383352,2.76267856372744,0.884
16,1,834,"positive","no_conflict",0.838427730511034,2.92116605063774,0.579
16,0,561,"positive","no_conflict",0.886534239638716,2.74896286125616,0.834
16,1,664,"negative_rc","conflict",0.934640748766399,2.82216807936802,0.561
16,1,1183,"positive","no_conflict",0.982747257894081,3.07298474462793,0.664
16,NA,NA,"negative_rc","conflict",1.03085376702176,NA,1.183
16,1,702,"positive","no_conflict",1.07896027614945,2.84633711212981,NA
16,1,445,"negative_highly_familiar","conflict",1.12706678527713,2.64836001098093,0.702
16,1,556,"positive","no_conflict",1.17517329440481,2.74507479158206,0.445
16,1,611,"negative_highly_familiar","conflict",1.22327980353249,2.78604121024255,0.556
16,1,730,"negative_familiar","conflict",1.27138631266017,2.86332286012046,0.611
16,1,481,"positive","no_conflict",1.31949282178786,2.68214507637383,0.73
16,1,1032,"negative_unfamiliar","no_conflict",1.36759933091554,3.01367969729119,0.481
16,1,888,"positive","no_conflict",1.41570584004322,2.9484129657786,1.032
16,1,480,"negative_rc","conflict",1.4638123491709,2.68124123737559,0.888
16,1,1390,"positive","no_conflict",1.51191885829859,3.14301480025409,0.48
16,1,1317,"positive","no_conflict",1.56002536742627,3.11958577496178,1.39
16,1,613,"negative_familiar","conflict",1.60813187655395,2.78746047451842,1.317
16,1,532,"negative_unfamiliar","no_conflict",1.65623838568163,2.72591163229505,0.613
16,1,667,"positive","no_conflict",1.70434489480932,2.82412583391655,0.532
17,1,599,"negative_unfamiliar","no_conflict",-1.71121725325613,2.77742682238931,0.667
17,1,902,"positive","no_conflict",-1.66311074412844,2.95520653754194,0.599
17,1,733,"negative_rc","conflict",-1.61500423500076,2.86510397464113,0.902
17,1,1085,"positive","no_conflict",-1.56689772587308,3.03542973818455,0.733
17,1,684,"negative_highly_familiar","conflict",-1.5187912167454,2.83505610172012,1.085
17,1,987,"positive","no_conflict",-1.47068470761772,2.99431715266964,0.684
17,1,794,"negative_familiar","conflict",-1.42257819849003,2.8998205024271,0.987
17,0,1033,"positive","no_conflict",-1.37447168936235,3.01410032151962,0.794
17,1,840,"positive","no_conflict",-1.32636518023467,2.92427928606188,1.033
17,1,1391,"negative_rc","conflict",-1.27825867110699,3.14332712999205,0.84
17,1,878,"negative_familiar","conflict",-1.2301521619793,2.9434945159061,1.391
17,1,1190,"positive","no_conflict",-1.18204565285162,3.07554696139253,0.878
17,1,1045,"positive","no_conflict",-1.13393914372394,3.01911629044707,1.19
17,1,820,"negative_rc","conflict",-1.08583263459626,2.91381385238372,1.045
17,1,812,"negative_highly_familiar","conflict",-1.03772612546857,2.90955602924118,0.82
17,1,1187,"positive","no_conflict",-0.989619616340893,3.07445071895459,0.812
17,1,1450,"positive","no_conflict",-0.94151310721321,3.16136800223497,1.187
17,1,1465,"negative_unfamiliar","no_conflict",-0.893406598085528,3.16583762469013,1.45
17,1,NA,"positive","no_conflict",-0.845300088957846,NA,1.465
17,1,1008,"negative_highly_familiar","conflict",-0.797193579830163,3.00346053210951,1.752
17,1,1223,"positive","no_conflict",-0.749087070702481,3.08742645703629,1.008
17,1,1286,"negative_familiar","conflict",-0.700980561574799,3.1092409685882,1.223
17,1,1101,"negative_unfamiliar","no_conflict",-0.652874052447117,3.04178731897175,1.286
17,1,1116,"positive","no_conflict",-0.604767543319434,3.04766419460156,1.101
17,1,1483,"negative_highly_familiar","conflict",-0.556661034191752,3.17114115102838,1.116
17,1,690,"positive","no_conflict",-0.50855452506407,2.83884909073726,1.483
17,1,1210,"negative_familiar","conflict",-0.460448015936387,3.08278537031645,0.69
17,1,817,"positive","no_conflict",-0.412341506808705,2.91222205653242,1.21
17,1,1160,"positive","no_conflict",-0.364234997681023,3.06445798922692,0.817
17,1,919,"negative_rc","conflict",-0.316128488553341,2.96331551138611,1.16
17,1,1230,"positive","no_conflict",-0.268021979425658,3.0899051114394,0.919
17,1,853,"negative_highly_familiar","conflict",-0.219915470297976,2.93094903116752,1.23
17,1,828,"positive","no_conflict",-0.171808961170294,2.91803033678488,0.853
17,0,1100,"negative_unfamiliar","no_conflict",-0.123702452042611,3.04139268515822,0.828
17,1,995,"positive","no_conflict",-0.0755959429149292,2.99782308074573,1.1
17,1,1442,"negative_unfamiliar","no_conflict",-0.0274894337872469,3.15896526038341,0.995
17,1,745,"positive","no_conflict",0.0206170753404354,2.87215627274829,1.442
17,1,1536,"negative_rc","conflict",0.0687235844681176,3.18639121569549,0.745
17,1,1039,"negative_highly_familiar","conflict",0.1168300935958,3.01661554755718,1.536
17,1,1118,"positive","no_conflict",0.164936602723482,3.0484418035504,1.039
17,1,1101,"positive","no_conflict",0.213043111851164,3.04178731897175,1.118
17,1,1477,"negative_familiar","conflict",0.261149620978847,3.16938049531195,1.101
17,1,804,"negative_unfamiliar","no_conflict",0.309256130106529,2.90525604874845,1.477
17,1,763,"positive","no_conflict",0.357362639234211,2.88252453795488,0.804
17,1,954,"positive","no_conflict",0.405469148361894,2.9795483747041,0.763
17,1,1049,"negative_rc","conflict",0.453575657489576,3.02077548819356,0.954
17,0,944,"positive","no_conflict",0.501682166617258,2.97497199429807,1.049
17,1,1015,"negative_familiar","conflict",0.54978867574494,3.00646604224923,0.944
17,1,770,"negative_unfamiliar","no_conflict",0.597895184872623,2.88649072517248,1.015
17,1,649,"positive","no_conflict",0.646001694000305,2.81224469680037,0.77
17,1,1288,"positive","no_conflict",0.694108203127987,3.10991586302379,0.649
17,1,1127,"negative_highly_familiar","conflict",0.74221471225567,3.05192391604611,1.288
17,1,982,"negative_familiar","conflict",0.790321221383352,2.99211148778695,1.127
17,1,1014,"positive","no_conflict",0.838427730511034,3.00603795499732,0.982
17,0,1253,"positive","no_conflict",0.886534239638716,3.09795107099415,1.014
17,1,956,"negative_rc","conflict",0.934640748766399,2.9804578922761,1.253
17,1,771,"positive","no_conflict",0.982747257894081,2.88705437805096,0.956
17,1,898,"negative_rc","conflict",1.03085376702176,2.9532763366673,0.771
17,1,1073,"positive","no_conflict",1.07896027614945,3.03059972196595,0.898
17,1,776,"negative_highly_familiar","conflict",1.12706678527713,2.88986172125819,1.073
17,0,1495,"positive","no_conflict",1.17517329440481,3.17464119266045,0.776
17,1,856,"negative_highly_familiar","conflict",1.22327980353249,2.93247376467715,1.495
17,1,1023,"negative_familiar","conflict",1.27138631266017,3.00987563371216,0.856
17,1,966,"positive","no_conflict",1.31949282178786,2.98497712641549,1.023
17,1,877,"negative_unfamiliar","no_conflict",1.36759933091554,2.94299959336604,0.966
17,1,892,"positive","no_conflict",1.41570584004322,2.95036485437612,0.877
17,1,859,"negative_rc","conflict",1.4638123491709,2.93399316383124,0.892
17,1,1114,"positive","no_conflict",1.51191885829859,3.04688519083771,0.859
17,0,1298,"positive","no_conflict",1.56002536742627,3.11327469246435,1.114
17,1,865,"negative_familiar","conflict",1.60813187655395,2.93701610746481,1.298
17,1,872,"negative_unfamiliar","no_conflict",1.65623838568163,2.94051648493257,0.865
17,1,895,"positive","no_conflict",1.70434489480932,2.95182303531591,0.872
18,1,947,"negative_unfamiliar","no_conflict",-1.71121725325613,2.97634997900327,0.895
18,1,674,"positive","no_conflict",-1.66311074412844,2.82865989653532,0.947
18,1,617,"negative_rc","conflict",-1.61500423500076,2.79028516403324,0.674
18,1,641,"positive","no_conflict",-1.56689772587308,2.80685802951882,0.617
18,0,848,"negative_highly_familiar","conflict",-1.5187912167454,2.92839585225671,0.641
18,1,887,"positive","no_conflict",-1.47068470761772,2.94792361983173,0.848
18,1,614,"negative_familiar","conflict",-1.42257819849003,2.78816837114117,0.887
18,1,909,"positive","no_conflict",-1.37447168936235,2.95856388322197,0.614
18,1,676,"positive","no_conflict",-1.32636518023467,2.82994669594164,0.909
18,1,563,"negative_rc","conflict",-1.27825867110699,2.75050839485135,0.676
18,1,890,"negative_familiar","conflict",-1.2301521619793,2.94939000664491,0.563
18,1,954,"positive","no_conflict",-1.18204565285162,2.9795483747041,0.89
18,1,497,"positive","no_conflict",-1.13393914372394,2.69635638873333,0.954
18,1,696,"negative_rc","conflict",-1.08583263459626,2.84260923961056,0.497
18,1,775,"negative_highly_familiar","conflict",-1.03772612546857,2.88930170250631,0.696
18,0,934,"positive","no_conflict",-0.989619616340893,2.97034687623009,0.775
18,1,909,"positive","no_conflict",-0.94151310721321,2.95856388322197,0.934
18,1,716,"negative_unfamiliar","no_conflict",-0.893406598085528,2.85491302230786,0.909
18,1,1060,"positive","no_conflict",-0.845300088957846,3.02530586526477,0.716
18,1,939,"negative_highly_familiar","conflict",-0.797193579830163,2.97266559226611,1.06
18,1,826,"positive","no_conflict",-0.749087070702481,2.91698004732038,0.939
18,1,697,"negative_familiar","conflict",-0.700980561574799,2.84323277809801,0.826
18,1,776,"negative_unfamiliar","no_conflict",-0.652874052447117,2.88986172125819,0.697
18,1,687,"positive","no_conflict",-0.604767543319434,2.83695673705955,0.776
18,1,734,"negative_highly_familiar","conflict",-0.556661034191752,2.86569605991607,0.687
18,1,733,"positive","no_conflict",-0.50855452506407,2.86510397464113,0.734
18,1,701,"negative_familiar","conflict",-0.460448015936387,2.84571801796666,0.733
18,0,588,"positive","no_conflict",-0.412341506808705,2.76937732607614,0.701
18,1,811,"positive","no_conflict",-0.364234997681023,2.90902085421116,0.588
18,1,778,"negative_rc","conflict",-0.316128488553341,2.89097959698969,0.811
18,1,737,"positive","no_conflict",-0.268021979425658,2.86746748785905,0.778
18,1,712,"negative_highly_familiar","conflict",-0.219915470297976,2.85247999363686,0.737
18,1,1055,"positive","no_conflict",-0.171808961170294,3.02325245963371,0.712
18,1,631,"negative_unfamiliar","no_conflict",-0.123702452042611,2.80002935924413,1.055
18,1,670,"positive","no_conflict",-0.0755959429149292,2.82607480270083,0.631
18,1,581,"negative_unfamiliar","no_conflict",-0.0274894337872469,2.76417613239033,0.67
18,0,556,"positive","no_conflict",0.0206170753404354,2.74507479158206,0.581
18,1,1179,"negative_rc","conflict",0.0687235844681176,3.07151380509509,0.556
18,0,1242,"negative_highly_familiar","conflict",0.1168300935958,3.09412159584056,1.179
18,1,865,"positive","no_conflict",0.164936602723482,2.93701610746481,1.242
18,1,785,"positive","no_conflict",0.213043111851164,2.89486965674525,0.865
18,1,792,"negative_familiar","conflict",0.261149620978847,2.89872518158949,0.785
18,1,719,"negative_unfamiliar","no_conflict",0.309256130106529,2.85672889038288,0.792
18,1,1046,"positive","no_conflict",0.357362639234211,3.01953168453126,0.719
18,1,517,"positive","no_conflict",0.405469148361894,2.71349054309394,1.046
18,1,1388,"negative_rc","conflict",0.453575657489576,3.14238946611884,0.517
18,NA,NA,"positive","no_conflict",0.501682166617258,NA,1.388
18,1,571,"negative_familiar","conflict",0.54978867574494,2.75663610824585,NA
18,1,1081,"negative_unfamiliar","no_conflict",0.597895184872623,3.03382569395331,0.571
18,1,1168,"positive","no_conflict",0.646001694000305,3.06744284277638,1.081
18,1,592,"positive","no_conflict",0.694108203127987,2.77232170672292,1.168
18,1,735,"negative_highly_familiar","conflict",0.74221471225567,2.86628733908419,0.592
18,1,606,"negative_familiar","conflict",0.790321221383352,2.78247262416629,0.735
18,0,565,"positive","no_conflict",0.838427730511034,2.75204844781944,0.606
18,0,1140,"positive","no_conflict",0.886534239638716,3.05690485133647,0.565
18,1,891,"negative_rc","conflict",0.934640748766399,2.94987770403687,1.14
18,1,810,"positive","no_conflict",0.982747257894081,2.90848501887865,0.891
18,1,890,"negative_rc","conflict",1.03085376702176,2.94939000664491,0.81
