date	time	subject	build	blocknum	trialnum	blockcode	trialcode	pretrialpause	posttrialpause	windowcenter	trialduration	trialtimeout	blocktimeout	response	correct	latency	inwindow	stimulusnumber1	stimulusitem1	stimulusvpos1	stimulushpos1	stimulusonset1	stimulusnumber2	stimulusitem2	stimulusvpos2	stimulushpos2	stimulusonset2	stimulusnumber3	stimulusitem3	stimulusvpos3	stimulushpos3	stimulusonset3	stimulusnumber4	stimulusitem4	stimulusvpos4	stimulushpos4	stimulusonset4	stimulusnumber5	stimulusitem5	stimulusvpos5	stimulushpos5	stimulusonset5	stimulusnumber6	stimulusitem6	stimulusvpos6	stimulushpos6	stimulusonset6	
081707	17:11	1	2.0.61004.5	1	1	congruent	congruentright	0	0	0	0	1500	1500	0	0	995	0	1	+	50	50	0	1	rightarrow.jpg	50	33.984375	506	1	rightarrow.jpg	50	41.9921875	506	1	rightarrow.jpg	50	50	506	1	rightarrow.jpg	50	58.0078125	506	1	rightarrow.jpg	50	66.015625	506	
081707	17:11	1	2.0.61004.5	1	2	congruent	congruentleft	0	0	0	0	1500	1500	18	1	617	0	1	+	50	50	0	1	leftarrow.jpg	50	33.984375	508	1	leftarrow.jpg	50	41.9921875	508	1	leftarrow.jpg	50	50	508	1	leftarrow.jpg	50	58.0078125	509	1	leftarrow.jpg	50	66.015625	509	
081707	17:11	1	2.0.61004.5	1	3	congruent	congruentleft	0	0	0	0	1500	1500	18	1	549	0	1	+	50	50	0	1	leftarrow.jpg	50	33.984375	506	1	leftarrow.jpg	50	41.9921875	506	1	leftarrow.jpg	50	50	506	1	leftarrow.jpg	50	58.0078125	506	1	leftarrow.jpg	50	66.015625	506	
081707	17:11	1	2.0.61004.5	1	4	congruent	congruentright	0	0	0	0	1500	1500	23	1	398	0	1	+	50	50	0	1	rightarrow.jpg	50	33.984375	506	1	rightarrow.jpg	50	41.9921875	506	1	rightarrow.jpg	50	50	506	1	rightarrow.jpg	50	58.0078125	506	1	rightarrow.jpg	50	66.015625	506	
081707	17:11	1	2.0.61004.5	1	5	congruent	congruentleft	0	0	0	0	1500	1500	18	1	322	0	1	+	50	50	0	1	leftarrow.jpg	50	33.984375	506	1	leftarrow.jpg	50	41.9921875	506	1	leftarrow.jpg	50	50	506	1	leftarrow.jpg	50	58.0078125	506	1	leftarrow.jpg	50	66.015625	506	
081707	17:11	1	2.0.61004.5	1	6	congruent	incongruentleft	0	0	0	0	1500	1500	23	0	260	0	1	+	50	50	0	1	rightarrow.jpg	50	33.984375	506	1	rightarrow.jpg	50	41.9921875	506	1	leftarrow.jpg	50	50	506	1	rightarrow.jpg	50	58.0078125	506	1	rightarrow.jpg	50	66.015625	506	
081707	17:11	1	2.0.61004.5	1	7	congruent	incongruentright	0	0	0	0	1500	1500	23	1	444	0	1	+	50	50	0	1	leftarrow.jpg	50	33.984375	506	1	leftarrow.jpg	50	41.9921875	506	1	rightarrow.jpg	50	50	506	1	leftarrow.jpg	50	58.0078125	506	1	leftarrow.jpg	50	66.015625	506	
081707	17:11	1	2.0.61004.5	1	8	congruent	congruentleft	0	0	0	0	1500	1500	18	1	404	0	1	+	50	50	0	1	leftarrow.jpg	50	33.984375	506	1	leftarrow.jpg	50	41.9921875	506	1	leftarrow.jpg	50	50	506	1	leftarrow.jpg	50	58.0078125	506	1	leftarrow.jpg	50	66.015625	506	
081707	17:11	1	2.0.61004.5	1	9	congruent	congruentleft	0	0	0	0	1500	1500	18	1	497	0	1	+	50	50	0	1	leftarrow.jpg	50	33.984375	506	1	leftarrow.jpg	50	41.9921875	506	1	leftarrow.jpg	50	50	506	1	leftarrow.jpg	50	58.0078125	506	1	leftarrow.jpg	50	66.015625	506	
081707	17:11	1	2.0.61004.5	1	10	congruent	congruentright	0	0	0	0	1500	1500	23	1	422	0	1	+	50	50	0	1	rightarrow.jpg	50	33.984375	535	1	rightarrow.jpg	50	41.9921875	535	1	rightarrow.jpg	50	50	535	1	rightarrow.jpg	50	58.0078125	535	1	rightarrow.jpg	50	66.015625	535	
081707	17:11	1	2.0.61004.5	1	11	congruent	congruentright	0	0	0	0	1500	1500	23	1	381	0	1	+	50	50	0	1	rightarrow.jpg	50	33.984375	506	1	rightarrow.jpg	50	41.9921875	506	1	rightarrow.jpg	50	50	506	1	rightarrow.jpg	50	58.0078125	506	1	rightarrow.jpg	50	66.015625	506	
081707	17:11	1	2.0.61004.5	1	12	congruent	incongruentright	0	0	0	0	1500	1500	23	1	436	0	1	+	50	50	0	1	leftarrow.jpg	50	33.984375	506	1	leftarrow.jpg	50	41.9921875	506	1	rightarrow.jpg	50	50	506	1	leftarrow.jpg	50	58.0078125	507	1	leftarrow.jpg	50	66.015625	507	
081707	17:11	1	2.0.61004.5	1	13	congruent	incongruentleft	0	0	0	0	1500	1500	18	1	478	0	1	+	50	50	0	1	rightarrow.jpg	50	33.984375	523	1	rightarrow.jpg	50	41.9921875	523	1	leftarrow.jpg	50	50	523	1	rightarrow.jpg	50	58.0078125	523	1	rightarrow.jpg	50	66.015625	523	
081707	17:11	1	2.0.61004.5	1	14	congruent	congruentleft	0	0	0	0	1500	1500	18	1	440	0	1	+	50	50	0	1	leftarrow.jpg	50	33.984375	506	1	leftarrow.jpg	50	41.9921875	506	1	leftarrow.jpg	50	50	506	1	leftarrow.jpg	50	58.0078125	506	1	leftarrow.jpg	50	66.015625	506	
081707	17:11	1	2.0.61004.5	1	15	congruent	congruentleft	0	0	0	0	1500	1500	18	1	401	0	1	+	50	50	0	1	leftarrow.jpg	50	33.984375	513	1	leftarrow.jpg	50	41.9921875	513	1	leftarrow.jpg	50	50	513	1	leftarrow.jpg	50	58.0078125	513	1	leftarrow.jpg	50	66.015625	513	
081707	17:11	1	2.0.61004.5	1	16	congruent	congruentright	0	0	0	0	1500	1500	23	1	316	0	1	+	50	50	0	1	rightarrow.jpg	50	33.984375	523	1	rightarrow.jpg	50	41.9921875	523	1	rightarrow.jpg	50	50	523	1	rightarrow.jpg	50	58.0078125	523	1	rightarrow.jpg	50	66.015625	523	
081707	17:11	1	2.0.61004.5	1	17	congruent	congruentleft	0	0	0	0	1500	1500	18	1	331	0	1	+	50	50	0	1	leftarrow.jpg	50	33.984375	506	1	leftarrow.jpg	50	41.9921875	507	1	leftarrow.jpg	50	50	507	1	leftarrow.jpg	50	58.0078125	507	1	leftarrow.jpg	50	66.015625	507	
081707	17:11	1	2.0.61004.5	1	18	congruent	congruentright	0	0	0	0	1500	1500	23	1	330	0	1	+	50	50	0	1	rightarrow.jpg	50	33.984375	506	1	rightarrow.jpg	50	41.9921875	506	1	rightarrow.jpg	50	50	506	1	rightarrow.jpg	50	58.0078125	506	1	rightarrow.jpg	50	66.015625	506	
081707	17:11	1	2.0.61004.5	1	19	congruent	incongruentright	0	0	0	0	1500	1500	18	0	349	0	1	+	50	50	0	1	leftarrow.jpg	50	33.984375	506	1	leftarrow.jpg	50	41.9921875	506	1	rightarrow.jpg	50	50	506	1	leftarrow.jpg	50	58.0078125	506	1	leftarrow.jpg	50	66.015625	506	
081707	17:11	1	2.0.61004.5	1	20	congruent	incongruentleft	0	0	0	0	1500	1500	18	1	562	0	1	+	50	50	0	1	rightarrow.jpg	50	33.984375	506	1	rightarrow.jpg	50	41.9921875	506	1	leftarrow.jpg	50	50	506	1	rightarrow.jpg	50	58.0078125	506	1	rightarrow.jpg	50	66.015625	506	
081707	17:11	1	2.0.61004.5	1	21	congruent	incongruentright	0	0	0	0	1500	1500	23	1	425	0	1	+	50	50	0	1	leftarrow.jpg	50	33.984375	506	1	leftarrow.jpg	50	41.9921875	506	1	rightarrow.jpg	50	50	506	1	leftarrow.jpg	50	58.0078125	506	1	leftarrow.jpg	50	66.015625	506	
081707	17:11	1	2.0.61004.5	1	22	congruent	congruentright	0	0	0	0	1500	1500	23	1	502	0	1	+	50	50	0	1	rightarrow.jpg	50	33.984375	506	1	rightarrow.jpg	50	41.9921875	506	1	rightarrow.jpg	50	50	506	1	rightarrow.jpg	50	58.0078125	506	1	rightarrow.jpg	50	66.015625	506	
081707	17:11	1	2.0.61004.5	1	23	congruent	congruentright	0	0	0	0	1500	1500	23	1	443	0	1	+	50	50	0	1	rightarrow.jpg	50	33.984375	506	1	rightarrow.jpg	50	41.9921875	506	1	rightarrow.jpg	50	50	506	1	rightarrow.jpg	50	58.0078125	507	1	rightarrow.jpg	50	66.015625	507	
081707	17:11	1	2.0.61004.5	1	24	congruent	congruentright	0	0	0	0	1500	1500	23	1	409	0	1	+	50	50	0	1	rightarrow.jpg	50	33.984375	506	1	rightarrow.jpg	50	41.9921875	506	1	rightarrow.jpg	50	50	506	1	rightarrow.jpg	50	58.0078125	506	1	rightarrow.jpg	50	66.015625	506	
081707	17:11	1	2.0.61004.5	1	25	congruent	incongruentleft	0	0	0	0	1500	1500	18	1	396	0	1	+	50	50	0	1	rightarrow.jpg	50	33.984375	506	1	rightarrow.jpg	50	41.9921875	506	1	leftarrow.jpg	50	50	506	1	rightarrow.jpg	50	58.0078125	506	1	rightarrow.jpg	50	66.015625	506	
081707	17:11	1	2.0.61004.5	1	26	congruent	congruentright	0	0	0	0	1500	1500	23	1	382	0	1	+	50	50	0	1	rightarrow.jpg	50	33.984375	506	1	rightarrow.jpg	50	41.9921875	506	1	rightarrow.jpg	50	50	506	1	rightarrow.jpg	50	58.0078125	506	1	rightarrow.jpg	50	66.015625	506	
081707	17:11	1	2.0.61004.5	1	27	congruent	congruentleft	0	0	0	0	1500	1500	18	1	383	0	1	+	50	50	0	1	leftarrow.jpg	50	33.984375	506	1	leftarrow.jpg	50	41.9921875	506	1	leftarrow.jpg	50	50	506	1	leftarrow.jpg	50	58.0078125	506	1	leftarrow.jpg	50	66.015625	506	
081707	17:11	1	2.0.61004.5	1	28	congruent	congruentright	0	0	0	0	1500	1500	23	1	388	0	1	+	50	50	0	1	rightarrow.jpg	50	33.984375	508	1	rightarrow.jpg	50	41.9921875	508	1	rightarrow.jpg	50	50	508	1	rightarrow.jpg	50	58.0078125	508	1	rightarrow.jpg	50	66.015625	508	
081707	17:11	1	2.0.61004.5	1	29	congruent	congruentright	0	0	0	0	1500	1500	23	1	439	0	1	+	50	50	0	1	rightarrow.jpg	50	33.984375	506	1	rightarrow.jpg	50	41.9921875	506	1	rightarrow.jpg	50	50	506	1	rightarrow.jpg	50	58.0078125	506	1	rightarrow.jpg	50	66.015625	506	
081707	17:11	1	2.0.61004.5	1	30	congruent	incongruentright	0	0	0	0	1500	1500	23	1	639	0	1	+	50	50	0	1	leftarrow.jpg	50	33.984375	506	1	leftarrow.jpg	50	41.9921875	506	1	rightarrow.jpg	50	50	506	1	leftarrow.jpg	50	58.0078125	506	1	leftarrow.jpg	50	66.015625	506	
081707	17:11	1	2.0.61004.5	1	31	congruent	incongruentleft	0	0	0	0	1500	1500	18	1	429	0	1	+	50	50	0	1	rightarrow.jpg	50	33.984375	506	1	rightarrow.jpg	50	41.9921875	506	1	leftarrow.jpg	50	50	506	1	rightarrow.jpg	50	58.0078125	506	1	rightarrow.jpg	50	66.015625	506	
081707	17:11	1	2.0.61004.5	1	32	congruent	incongruentleft	0	0	0	0	1500	1500	18	1	445	0	1	+	50	50	0	1	rightarrow.jpg	50	33.984375	506	1	rightarrow.jpg	50	41.9921875	506	1	leftarrow.jpg	50	50	506	1	rightarrow.jpg	50	58.0078125	506	1	rightarrow.jpg	50	66.015625	506	
081707	17:11	1	2.0.61004.5	1	33	congruent	congruentleft	0	0	0	0	1500	1500	18	1	410	0	1	+	50	50	0	1	leftarrow.jpg	50	33.984375	533	1	leftarrow.jpg	50	41.9921875	533	1	leftarrow.jpg	50	50	533	1	leftarrow.jpg	50	58.0078125	533	1	leftarrow.jpg	50	66.015625	533	
081707	17:11	1	2.0.61004.5	1	34	congruent	congruentright	0	0	0	0	1500	1500	23	1	332	0	1	+	50	50	0	1	rightarrow.jpg	50	33.984375	506	1	rightarrow.jpg	50	41.9921875	506	1	rightarrow.jpg	50	50	506	1	rightarrow.jpg	50	58.0078125	506	1	rightarrow.jpg	50	66.015625	506	
081707	17:11	1	2.0.61004.5	1	35	congruent	congruentleft	0	0	0	0	1500	1500	18	1	518	0	1	+	50	50	0	1	leftarrow.jpg	50	33.984375	506	1	leftarrow.jpg	50	41.9921875	506	1	leftarrow.jpg	50	50	506	1	leftarrow.jpg	50	58.0078125	506	1	leftarrow.jpg	50	66.015625	506	
081707	17:11	1	2.0.61004.5	1	36	congruent	congruentleft	0	0	0	0	1500	1500	18	1	411	0	1	+	50	50	0	1	leftarrow.jpg	50	33.984375	506	1	leftarrow.jpg	50	41.9921875	506	1	leftarrow.jpg	50	50	506	1	leftarrow.jpg	50	58.0078125	506	1	leftarrow.jpg	50	66.015625	506	
081707	17:11	1	2.0.61004.5	1	37	congruent	congruentleft	0	0	0	0	1500	1500	18	1	417	0	1	+	50	50	0	1	leftarrow.jpg	50	33.984375	527	1	leftarrow.jpg	50	41.9921875	527	1	leftarrow.jpg	50	50	527	1	leftarrow.jpg	50	58.0078125	527	1	leftarrow.jpg	50	66.015625	527	
081707	17:11	1	2.0.61004.5	1	38	congruent	incongruentright	0	0	0	0	1500	1500	23	1	375	0	1	+	50	50	0	1	leftarrow.jpg	50	33.984375	506	1	leftarrow.jpg	50	41.9921875	506	1	rightarrow.jpg	50	50	506	1	leftarrow.jpg	50	58.0078125	506	1	leftarrow.jpg	50	66.015625	506	
081707	17:11	1	2.0.61004.5	1	39	congruent	congruentleft	0	0	0	0	1500	1500	18	1	391	0	1	+	50	50	0	1	leftarrow.jpg	50	33.984375	506	1	leftarrow.jpg	50	41.9921875	506	1	leftarrow.jpg	50	50	506	1	leftarrow.jpg	50	58.0078125	506	1	leftarrow.jpg	50	66.015625	506	
081707	17:11	1	2.0.61004.5	1	40	congruent	congruentright	0	0	0	0	1500	1500	23	1	381	0	1	+	50	50	0	1	rightarrow.jpg	50	33.984375	506	1	rightarrow.jpg	50	41.9921875	506	1	rightarrow.jpg	50	50	506	1	rightarrow.jpg	50	58.0078125	506	1	rightarrow.jpg	50	66.015625	506	
081707	17:11	1	2.0.61004.5	2	1	incongruent	congruentleft	0	0	0	0	1500	1500	18	1	368	0	1	+	50	50	0	1	leftarrow.jpg	50	33.984375	506	1	leftarrow.jpg	50	41.9921875	506	1	leftarrow.jpg	50	50	506	1	leftarrow.jpg	50	58.0078125	506	1	leftarrow.jpg	50	66.015625	506	
081707	17:11	1	2.0.61004.5	2	2	incongruent	incongruentright	0	0	0	0	1500	1500	23	1	381	0	1	+	50	50	0	1	leftarrow.jpg	50	33.984375	506	1	leftarrow.jpg	50	41.9921875	506	1	rightarrow.jpg	50	50	506	1	leftarrow.jpg	50	58.0078125	506	1	leftarrow.jpg	50	66.015625	506	
081707	17:11	1	2.0.61004.5	2	3	incongruent	congruentright	0	0	0	0	1500	1500	23	1	499	0	1	+	50	50	0	1	rightarrow.jpg	50	33.984375	509	1	rightarrow.jpg	50	41.9921875	509	1	rightarrow.jpg	50	50	509	1	rightarrow.jpg	50	58.0078125	509	1	rightarrow.jpg	50	66.015625	509	
081707	17:11	1	2.0.61004.5	2	4	incongruent	congruentleft	0	0	0	0	1500	1500	18	1	450	0	1	+	50	50	0	1	leftarrow.jpg	50	33.984375	506	1	leftarrow.jpg	50	41.9921875	506	1	leftarrow.jpg	50	50	506	1	leftarrow.jpg	50	58.0078125	506	1	leftarrow.jpg	50	66.015625	506	
081707	17:11	1	2.0.61004.5	2	5	incongruent	incongruentright	0	0	0	0	1500	1500	23	1	336	0	1	+	50	50	0	1	leftarrow.jpg	50	33.984375	506	1	leftarrow.jpg	50	41.9921875	506	1	rightarrow.jpg	50	50	506	1	leftarrow.jpg	50	58.0078125	506	1	leftarrow.jpg	50	66.015625	506	
081707	17:11	1	2.0.61004.5	2	6	incongruent	congruentleft	0	0	0	0	1500	1500	18	1	412	0	1	+	50	50	0	1	leftarrow.jpg	50	33.984375	506	1	leftarrow.jpg	50	41.9921875	506	1	leftarrow.jpg	50	50	506	1	leftarrow.jpg	50	58.0078125	506	1	leftarrow.jpg	50	66.015625	506	
081707	17:11	1	2.0.61004.5	2	7	incongruent	incongruentleft	0	0	0	0	1500	1500	18	1	471	0	1	+	50	50	0	1	rightarrow.jpg	50	33.984375	506	1	rightarrow.jpg	50	41.9921875	506	1	leftarrow.jpg	50	50	506	1	rightarrow.jpg	50	58.0078125	506	1	rightarrow.jpg	50	66.015625	506	
081707	17:11	1	2.0.61004.5	2	8	incongruent	incongruentleft	0	0	0	0	1500	1500	18	1	415	0	1	+	50	50	0	1	rightarrow.jpg	50	33.984375	506	1	rightarrow.jpg	50	41.9921875	506	1	leftarrow.jpg	50	50	506	1	rightarrow.jpg	50	58.0078125	506	1	rightarrow.jpg	50	66.015625	506	
081707	17:11	1	2.0.61004.5	2	9	incongruent	incongruentright	0	0	0	0	1500	1500	23	1	427	0	1	+	50	50	0	1	leftarrow.jpg	50	33.984375	506	1	leftarrow.jpg	50	41.9921875	506	1	rightarrow.jpg	50	50	506	1	leftarrow.jpg	50	58.0078125	507	1	leftarrow.jpg	50	66.015625	507	
081707	17:11	1	2.0.61004.5	2	10	incongruent	incongruentleft	0	0	0	0	1500	1500	18	1	392	0	1	+	50	50	0	1	rightarrow.jpg	50	33.984375	506	1	rightarrow.jpg	50	41.9921875	506	1	leftarrow.jpg	50	50	506	1	rightarrow.jpg	50	58.0078125	506	1	rightarrow.jpg	50	66.015625	506	
081707	17:11	1	2.0.61004.5	2	11	incongruent	incongruentright	0	0	0	0	1500	1500	23	1	329	0	1	+	50	50	0	1	leftarrow.jpg	50	33.984375	506	1	leftarrow.jpg	50	41.9921875	506	1	rightarrow.jpg	50	50	506	1	leftarrow.jpg	50	58.0078125	506	1	leftarrow.jpg	50	66.015625	506	
081707	17:11	1	2.0.61004.5	2	12	incongruent	congruentleft	0	0	0	0	1500	1500	18	1	347	0	1	+	50	50	0	1	leftarrow.jpg	50	33.984375	506	1	leftarrow.jpg	50	41.9921875	506	1	leftarrow.jpg	50	50	506	1	leftarrow.jpg	50	58.0078125	506	1	leftarrow.jpg	50	66.015625	506	
081707	17:11	1	2.0.61004.5	2	13	incongruent	congruentright	0	0	0	0	1500	1500	23	1	501	0	1	+	50	50	0	1	rightarrow.jpg	50	33.984375	506	1	rightarrow.jpg	50	41.9921875	506	1	rightarrow.jpg	50	50	506	1	rightarrow.jpg	50	58.0078125	506	1	rightarrow.jpg	50	66.015625	506	
081707	17:11	1	2.0.61004.5	2	14	incongruent	congruentleft	0	0	0	0	1500	1500	18	1	427	0	1	+	50	50	0	1	leftarrow.jpg	50	33.984375	506	1	leftarrow.jpg	50	41.9921875	506	1	leftarrow.jpg	50	50	506	1	leftarrow.jpg	50	58.0078125	506	1	leftarrow.jpg	50	66.015625	506	
081707	17:11	1	2.0.61004.5	2	15	incongruent	congruentleft	0	0	0	0	1500	1500	18	1	679	0	1	+	50	50	0	1	leftarrow.jpg	50	33.984375	506	1	leftarrow.jpg	50	41.9921875	506	1	leftarrow.jpg	50	50	506	1	leftarrow.jpg	50	58.0078125	506	1	leftarrow.jpg	50	66.015625	506	
081707	17:11	1	2.0.61004.5	2	16	incongruent	incongruentright	0	0	0	0	1500	1500	23	1	329	0	1	+	50	50	0	1	leftarrow.jpg	50	33.984375	506	1	leftarrow.jpg	50	41.9921875	506	1	rightarrow.jpg	50	50	506	1	leftarrow.jpg	50	58.0078125	506	1	leftarrow.jpg	50	66.015625	506	
081707	17:11	1	2.0.61004.5	2	17	incongruent	congruentleft	0	0	0	0	1500	1500	18	1	417	0	1	+	50	50	0	1	leftarrow.jpg	50	33.984375	506	1	leftarrow.jpg	50	41.9921875	506	1	leftarrow.jpg	50	50	506	1	leftarrow.jpg	50	58.0078125	506	1	leftarrow.jpg	50	66.015625	506	
081707	17:11	1	2.0.61004.5	2	18	incongruent	congruentleft	0	0	0	0	1500	1500	18	1	378	0	1	+	50	50	0	1	leftarrow.jpg	50	33.984375	506	1	leftarrow.jpg	50	41.9921875	506	1	leftarrow.jpg	50	50	506	1	leftarrow.jpg	50	58.0078125	506	1	leftarrow.jpg	50	66.015625	506	
081707	17:11	1	2.0.61004.5	2	19	incongruent	incongruentright	0	0	0	0	1500	1500	23	1	397	0	1	+	50	50	0	1	leftarrow.jpg	50	33.984375	506	1	leftarrow.jpg	50	41.9921875	506	1	rightarrow.jpg	50	50	506	1	leftarrow.jpg	50	58.0078125	506	1	leftarrow.jpg	50	66.015625	506	
081707	17:11	1	2.0.61004.5	2	20	incongruent	incongruentleft	0	0	0	0	1500	1500	18	1	414	0	1	+	50	50	0	1	rightarrow.jpg	50	33.984375	506	1	rightarrow.jpg	50	41.9921875	506	1	leftarrow.jpg	50	50	506	1	rightarrow.jpg	50	58.0078125	506	1	rightarrow.jpg	50	66.015625	506	
081707	17:11	1	2.0.61004.5	2	21	incongruent	incongruentright	0	0	0	0	1500	1500	18	0	358	0	1	+	50	50	0	1	leftarrow.jpg	50	33.984375	506	1	leftarrow.jpg	50	41.9921875	506	1	rightarrow.jpg	50	50	506	1	leftarrow.jpg	50	58.0078125	506	1	leftarrow.jpg	50	66.015625	506	
081707	17:11	1	2.0.61004.5	2	22	incongruent	congruentleft	0	0	0	0	1500	1500	18	1	408	0	1	+	50	50	0	1	leftarrow.jpg	50	33.984375	506	1	leftarrow.jpg	50	41.9921875	506	1	leftarrow.jpg	50	50	506	1	leftarrow.jpg	50	58.0078125	506	1	leftarrow.jpg	50	66.015625	506	
081707	17:11	1	2.0.61004.5	2	23	incongruent	congruentleft	0	0	0	0	1500	1500	18	1	403	0	1	+	50	50	0	1	leftarrow.jpg	50	33.984375	506	1	leftarrow.jpg	50	41.9921875	506	1	leftarrow.jpg	50	50	506	1	leftarrow.jpg	50	58.0078125	506	1	leftarrow.jpg	50	66.015625	506	
081707	17:11	1	2.0.61004.5	2	24	incongruent	congruentright	0	0	0	0	1500	1500	23	1	319	0	1	+	50	50	0	1	rightarrow.jpg	50	33.984375	522	1	rightarrow.jpg	50	41.9921875	522	1	rightarrow.jpg	50	50	522	1	rightarrow.jpg	50	58.0078125	522	1	rightarrow.jpg	50	66.015625	522	
081707	17:11	1	2.0.61004.5	2	25	incongruent	congruentright	0	0	0	0	1500	1500	23	1	393	0	1	+	50	50	0	1	rightarrow.jpg	50	33.984375	506	1	rightarrow.jpg	50	41.9921875	506	1	rightarrow.jpg	50	50	506	1	rightarrow.jpg	50	58.0078125	506	1	rightarrow.jpg	50	66.015625	506	
081707	17:11	1	2.0.61004.5	2	26	incongruent	incongruentleft	0	0	0	0	1500	1500	18	1	409	0	1	+	50	50	0	1	rightarrow.jpg	50	33.984375	506	1	rightarrow.jpg	50	41.9921875	506	1	leftarrow.jpg	50	50	506	1	rightarrow.jpg	50	58.0078125	506	1	rightarrow.jpg	50	66.015625	506	
081707	17:11	1	2.0.61004.5	2	27	incongruent	incongruentright	0	0	0	0	1500	1500	23	1	447	0	1	+	50	50	0	1	leftarrow.jpg	50	33.984375	507	1	leftarrow.jpg	50	41.9921875	507	1	rightarrow.jpg	50	50	507	1	leftarrow.jpg	50	58.0078125	507	1	leftarrow.jpg	50	66.015625	507	
081707	17:11	1	2.0.61004.5	2	28	incongruent	incongruentright	0	0	0	0	1500	1500	23	1	441	0	1	+	50	50	0	1	leftarrow.jpg	50	33.984375	506	1	leftarrow.jpg	50	41.9921875	506	1	rightarrow.jpg	50	50	506	1	leftarrow.jpg	50	58.0078125	506	1	leftarrow.jpg	50	66.015625	506	
081707	17:11	1	2.0.61004.5	2	29	incongruent	congruentleft	0	0	0	0	1500	1500	18	1	406	0	1	+	50	50	0	1	leftarrow.jpg	50	33.984375	506	1	leftarrow.jpg	50	41.9921875	506	1	leftarrow.jpg	50	50	506	1	leftarrow.jpg	50	58.0078125	506	1	leftarrow.jpg	50	66.015625	506	
081707	17:11	1	2.0.61004.5	2	30	incongruent	incongruentright	0	0	0	0	1500	1500	23	1	398	0	1	+	50	50	0	1	leftarrow.jpg	50	33.984375	507	1	leftarrow.jpg	50	41.9921875	507	1	rightarrow.jpg	50	50	507	1	leftarrow.jpg	50	58.0078125	507	1	leftarrow.jpg	50	66.015625	507	
081707	17:11	1	2.0.61004.5	2	31	incongruent	congruentleft	0	0	0	0	1500	1500	18	1	413	0	1	+	50	50	0	1	leftarrow.jpg	50	33.984375	525	1	leftarrow.jpg	50	41.9921875	525	1	leftarrow.jpg	50	50	525	1	leftarrow.jpg	50	58.0078125	525	1	leftarrow.jpg	50	66.015625	525	
081707	17:11	1	2.0.61004.5	2	32	incongruent	congruentleft	0	0	0	0	1500	1500	18	1	397	0	1	+	50	50	0	1	leftarrow.jpg	50	33.984375	506	1	leftarrow.jpg	50	41.9921875	506	1	leftarrow.jpg	50	50	506	1	leftarrow.jpg	50	58.0078125	506	1	leftarrow.jpg	50	66.015625	506	
081707	17:11	1	2.0.61004.5	2	33	incongruent	incongruentright	0	0	0	0	1500	1500	23	1	395	0	1	+	50	50	0	1	leftarrow.jpg	50	33.984375	510	1	leftarrow.jpg	50	41.9921875	510	1	rightarrow.jpg	50	50	510	1	leftarrow.jpg	50	58.0078125	510	1	leftarrow.jpg	50	66.015625	510	
081707	17:11	1	2.0.61004.5	2	34	incongruent	incongruentright	0	0	0	0	1500	1500	23	1	421	0	1	+	50	50	0	1	leftarrow.jpg	50	33.984375	506	1	leftarrow.jpg	50	41.9921875	506	1	rightarrow.jpg	50	50	506	1	leftarrow.jpg	50	58.0078125	506	1	leftarrow.jpg	50	66.015625	506	
081707	17:11	1	2.0.61004.5	2	35	incongruent	incongruentleft	0	0	0	0	1500	1500	18	1	437	0	1	+	50	50	0	1	rightarrow.jpg	50	33.984375	507	1	rightarrow.jpg	50	41.9921875	507	1	leftarrow.jpg	50	50	507	1	rightarrow.jpg	50	58.0078125	507	1	rightarrow.jpg	50	66.015625	507	
081707	17:11	1	2.0.61004.5	2	36	incongruent	congruentright	0	0	0	0	1500	1500	23	1	358	0	1	+	50	50	0	1	rightarrow.jpg	50	33.984375	506	1	rightarrow.jpg	50	41.9921875	506	1	rightarrow.jpg	50	50	506	1	rightarrow.jpg	50	58.0078125	506	1	rightarrow.jpg	50	66.015625	506	
081707	17:11	1	2.0.61004.5	2	37	incongruent	congruentright	0	0	0	0	1500	1500	23	1	401	0	1	+	50	50	0	1	rightarrow.jpg	50	33.984375	506	1	rightarrow.jpg	50	41.9921875	506	1	rightarrow.jpg	50	50	506	1	rightarrow.jpg	50	58.0078125	506	1	rightarrow.jpg	50	66.015625	506	
081707	17:11	1	2.0.61004.5	2	38	incongruent	incongruentright	0	0	0	0	1500	1500	23	1	473	0	1	+	50	50	0	1	leftarrow.jpg	50	33.984375	506	1	leftarrow.jpg	50	41.9921875	506	1	rightarrow.jpg	50	50	506	1	leftarrow.jpg	50	58.0078125	506	1	leftarrow.jpg	50	66.015625	506	
081707	17:11	1	2.0.61004.5	2	39	incongruent	incongruentright	0	0	0	0	1500	1500	23	1	464	0	1	+	50	50	0	1	leftarrow.jpg	50	33.984375	539	1	leftarrow.jpg	50	41.9921875	539	1	rightarrow.jpg	50	50	539	1	leftarrow.jpg	50	58.0078125	539	1	leftarrow.jpg	50	66.015625	539	
081707	17:11	1	2.0.61004.5	2	40	incongruent	congruentleft	0	0	0	0	1500	1500	18	1	354	0	1	+	50	50	0	1	leftarrow.jpg	50	33.984375	509	1	leftarrow.jpg	50	41.9921875	509	1	leftarrow.jpg	50	50	509	1	leftarrow.jpg	50	58.0078125	509	1	leftarrow.jpg	50	66.015625	509	
060109	11:57	1	3.0.3.2	1	1	congruent	incongruentleft	0	0	0	0	0	0	0	0	1000	0	1	+	50pct	50pct	0	1	rightarrow.jpg	50pct	34pct	0	1	rightarrow.jpg	50pct	42pct	0	1	leftarrow.jpg	50pct	50pct	0	1	rightarrow.jpg	50pct	58pct	0	1	rightarrow.jpg	50pct	66pct	0
060109	11:57	1	3.0.3.2	1	2	congruent	incongruentright	0	0	0	0	0	0	0	0	1000	0	1	+	50pct	50pct	0	1	leftarrow.jpg	50pct	34pct	0	1	leftarrow.jpg	50pct	42pct	0	1	rightarrow.jpg	50pct	50pct	0	1	leftarrow.jpg	50pct	58pct	0	1	leftarrow.jpg	50pct	66pct	0
060109	11:57	1	3.0.3.2	1	3	congruent	congruentleft	0	0	0	0	0	0	0	0	1000	0	1	+	50pct	50pct	0	1	leftarrow.jpg	50pct	34pct	0	1	leftarrow.jpg	50pct	42pct	0	1	leftarrow.jpg	50pct	50pct	0	1	leftarrow.jpg	50pct	58pct	0	1	leftarrow.jpg	50pct	66pct	0
060109	11:57	1	3.0.3.2	1	4	congruent	congruentright	0	0	0	0	0	0	0	0	1000	0	1	+	50pct	50pct	0	1	rightarrow.jpg	50pct	34pct	0	1	rightarrow.jpg	50pct	42pct	0	1	rightarrow.jpg	50pct	50pct	0	1	rightarrow.jpg	50pct	58pct	0	1	rightarrow.jpg	50pct	66pct	0
060109	11:57	1	3.0.3.2	1	5	congruent	congruentright	0	0	0	0	0	0	0	0	1000	0	1	+	50pct	50pct	0	1	rightarrow.jpg	50pct	34pct	0	1	rightarrow.jpg	50pct	42pct	0	1	rightarrow.jpg	50pct	50pct	0	1	rightarrow.jpg	50pct	58pct	0	1	rightarrow.jpg	50pct	66pct	0
060109	11:57	1	3.0.3.2	1	6	congruent	congruentleft	0	0	0	0	0	0	0	0	1000	0	1	+	50pct	50pct	0	1	leftarrow.jpg	50pct	34pct	0	1	leftarrow.jpg	50pct	42pct	0	1	leftarrow.jpg	50pct	50pct	0	1	leftarrow.jpg	50pct	58pct	0	1	leftarrow.jpg	50pct	66pct	0
060109	11:57	1	3.0.3.2	1	7	congruent	congruentleft	0	0	0	0	0	0	0	0	1000	0	1	+	50pct	50pct	5	1	leftarrow.jpg	50pct	34pct	0	1	leftarrow.jpg	50pct	42pct	0	1	leftarrow.jpg	50pct	50pct	0	1	leftarrow.jpg	50pct	58pct	0	1	leftarrow.jpg	50pct	66pct	0
060109	11:57	1	3.0.3.2	1	8	congruent	congruentleft	0	0	0	0	0	0	0	0	1000	0	1	+	50pct	50pct	0	1	leftarrow.jpg	50pct	34pct	0	1	leftarrow.jpg	50pct	42pct	0	1	leftarrow.jpg	50pct	50pct	0	1	leftarrow.jpg	50pct	58pct	0	1	leftarrow.jpg	50pct	66pct	0
060109	11:57	1	3.0.3.2	1	9	congruent	incongruentleft	0	0	0	0	0	0	0	0	1000	0	1	+	50pct	50pct	0	1	rightarrow.jpg	50pct	34pct	0	1	rightarrow.jpg	50pct	42pct	0	1	leftarrow.jpg	50pct	50pct	0	1	rightarrow.jpg	50pct	58pct	0	1	rightarrow.jpg	50pct	66pct	0
060109	11:57	1	3.0.3.2	1	10	congruent	incongruentright	0	0	0	0	0	0	0	0	1000	0	1	+	50pct	50pct	0	1	leftarrow.jpg	50pct	34pct	0	1	leftarrow.jpg	50pct	42pct	0	1	rightarrow.jpg	50pct	50pct	0	1	leftarrow.jpg	50pct	58pct	0	1	leftarrow.jpg	50pct	66pct	0
060109	11:57	1	3.0.3.2	1	11	congruent	incongruentleft	0	0	0	0	0	0	0	0	1000	0	1	+	50pct	50pct	0	1	rightarrow.jpg	50pct	34pct	0	1	rightarrow.jpg	50pct	42pct	0	1	leftarrow.jpg	50pct	50pct	0	1	rightarrow.jpg	50pct	58pct	0	1	rightarrow.jpg	50pct	66pct	0
060109	11:57	1	3.0.3.2	1	12	congruent	congruentright	0	0	0	0	0	0	0	0	1000	0	1	+	50pct	50pct	0	1	rightarrow.jpg	50pct	34pct	0	1	rightarrow.jpg	50pct	42pct	0	1	rightarrow.jpg	50pct	50pct	0	1	rightarrow.jpg	50pct	58pct	0	1	rightarrow.jpg	50pct	66pct	0
060109	11:57	1	3.0.3.2	1	13	congruent	congruentright	0	0	0	0	0	0	0	0	1000	0	1	+	50pct	50pct	0	1	rightarrow.jpg	50pct	34pct	0	1	rightarrow.jpg	50pct	42pct	0	1	rightarrow.jpg	50pct	50pct	0	1	rightarrow.jpg	50pct	58pct	0	1	rightarrow.jpg	50pct	66pct	0
060109	11:57	1	3.0.3.2	1	14	congruent	congruentright	0	0	0	0	0	0	0	0	1000	0	1	+	50pct	50pct	5	1	rightarrow.jpg	50pct	34pct	0	1	rightarrow.jpg	50pct	42pct	0	1	rightarrow.jpg	50pct	50pct	0	1	rightarrow.jpg	50pct	58pct	0	1	rightarrow.jpg	50pct	66pct	0
060109	11:57	1	3.0.3.2	1	15	congruent	congruentright	0	0	0	0	0	0	0	0	1000	0	1	+	50pct	50pct	0	1	rightarrow.jpg	50pct	34pct	0	1	rightarrow.jpg	50pct	42pct	0	1	rightarrow.jpg	50pct	50pct	0	1	rightarrow.jpg	50pct	58pct	0	1	rightarrow.jpg	50pct	66pct	0
060109	11:57	1	3.0.3.2	1	16	congruent	congruentleft	0	0	0	0	0	0	0	0	1000	0	1	+	50pct	50pct	0	1	leftarrow.jpg	50pct	34pct	0	1	leftarrow.jpg	50pct	42pct	0	1	leftarrow.jpg	50pct	50pct	0	1	leftarrow.jpg	50pct	58pct	0	1	leftarrow.jpg	50pct	66pct	0
060109	11:57	1	3.0.3.2	1	17	congruent	congruentleft	0	0	0	0	0	0	0	0	1000	0	1	+	50pct	50pct	0	1	leftarrow.jpg	50pct	34pct	0	1	leftarrow.jpg	50pct	42pct	0	1	leftarrow.jpg	50pct	50pct	0	1	leftarrow.jpg	50pct	58pct	0	1	leftarrow.jpg	50pct	66pct	0
060109	11:57	1	3.0.3.2	1	18	congruent	congruentleft	0	0	0	0	0	0	0	0	1000	0	1	+	50pct	50pct	0	1	leftarrow.jpg	50pct	34pct	0	1	leftarrow.jpg	50pct	42pct	0	1	leftarrow.jpg	50pct	50pct	0	1	leftarrow.jpg	50pct	58pct	0	1	leftarrow.jpg	50pct	66pct	0
060109	11:57	1	3.0.3.2	1	19	congruent	congruentleft	0	0	0	0	0	0	0	0	1000	0	1	+	50pct	50pct	0	1	leftarrow.jpg	50pct	34pct	0	1	leftarrow.jpg	50pct	42pct	0	1	leftarrow.jpg	50pct	50pct	0	1	leftarrow.jpg	50pct	58pct	0	1	leftarrow.jpg	50pct	66pct	0
060109	11:57	1	3.0.3.2	1	20	congruent	congruentright	0	0	0	0	0	0	16	1	546	0	1	+	50pct	50pct	0	1	rightarrow.jpg	50pct	34pct	0	1	rightarrow.jpg	50pct	42pct	0	1	rightarrow.jpg	50pct	50pct	0	1	rightarrow.jpg	50pct	58pct	0	1	rightarrow.jpg	50pct	66pct	0
